subject,run,trial,set_size,probe,response,correct,response_time
001,1,1,3,target,old,1,1.358005439400003
001,1,2,7,lure,new,1,1.0815043318999997
001,1,3,3,target,old,1,1.1027044168000089
001,1,4,7,target,old,1,1.086204350700001
001,1,5,7,lure,new,1,1.398405601200011
001,1,6,3,lure,new,1,1.1426045766000072
001,1,7,3,lure,new,1,0.9956039877999956
001,1,8,3,target,old,1,1.4945059862000107
001,1,9,3,target,old,1,1.195304787699996
001,1,10,3,target,old,1,1.1981047989000047
001,1,11,5,target,old,1,0.9961039898000195
001,1,12,5,target,old,1,0.960503847200016
001,1,13,5,target,old,1,0.7800031241999932
001,1,14,7,lure,new,1,1.2149048661999586
001,1,15,3,target,old,1,0.7683030773000041
001,1,16,5,lure,new,1,1.468605882400027
001,1,17,5,target,old,1,0.9126036554000052
001,1,18,7,target,old,1,1.1448045854000384
001,1,19,5,lure,new,1,1.3336053415999913
001,1,20,5,target,new,0,1.1136044603999835
001,1,21,5,target,old,1,0.9429037767000636
001,1,22,7,lure,new,1,1.0617042525000215
001,1,23,7,target,old,1,0.787203153000064
001,1,24,5,lure,new,1,1.159304643500036
001,1,25,7,lure,new,1,1.1095044440000947
001,2,1,7,lure,new,1,0.7164968568000027
001,2,2,3,target,old,1,0.5921974020999983
001,2,3,5,lure,new,1,0.6806970137999997
001,2,4,5,target,new,0,0.8130964329999983
001,2,5,5,target,old,1,1.0517953857999913
001,2,6,5,lure,new,1,0.8271963711000012
001,2,7,7,target,old,1,0.8813961333999885
001,2,8,3,lure,new,1,1.0354954574000033
001,2,9,3,target,old,1,0.926195936799985
001,2,10,7,target,old,1,0.9259959377999962
001,2,11,3,target,old,1,0.7624966550000067
001,2,12,7,lure,new,1,1.5030934060999925
001,2,13,7,target,old,1,0.9105960053000217
001,2,14,3,target,old,1,0.6543971292000492
001,2,15,5,lure,new,1,0.780996573799996
001,2,16,5,lure,new,1,0.9706957415999682
001,2,17,7,target,old,1,1.1333950279000078
001,2,18,3,target,old,1,0.5612975376000122
001,2,19,3,target,old,1,1.0299954815000092
001,2,20,3,lure,new,1,0.7781965861000231
001,2,21,7,lure,new,1,0.9928956443000061
001,2,22,5,target,old,1,0.821596395800043
001,2,23,7,lure,old,0,1.2091946953999013
001,2,24,3,lure,new,1,1.1770948362000127
001,2,25,5,target,old,1,0.9339959027000759
001,3,1,7,target,old,1,0.7878010517999989
001,3,2,7,lure,new,1,1.1091014807999997
001,3,3,3,lure,new,1,0.8524011379999905
001,3,4,3,lure,new,1,0.6920009240000127
001,3,5,7,target,old,1,0.6684008924000011
001,3,6,5,target,new,0,0.6083008120999978
001,3,7,3,target,old,1,0.9134012195999901
001,3,8,3,target,old,1,0.6697008941999911
001,3,9,3,lure,new,1,1.0793014410000126
001,3,10,7,target,old,1,0.5888007860999949
001,3,11,7,target,old,1,0.8828011786000047
001,3,12,5,lure,new,1,0.8163010898999801
001,3,13,7,target,old,1,0.8076010783000243
001,3,14,3,target,old,1,0.8623011513000165
001,3,15,3,lure,new,1,0.7922010577000265
001,3,16,5,lure,old,0,1.164801555199972
001,3,17,7,lure,new,1,0.7303009749999774
001,3,18,5,target,old,1,0.8039010733000396
001,3,19,5,target,old,1,0.6374008510999829
001,3,20,7,target,old,1,0.8683011593000174
001,3,21,5,lure,new,1,0.8992012005000447
001,3,22,5,lure,new,1,0.7840010467000411
001,3,23,7,target,old,1,0.6905009219000249
001,3,24,3,target,old,1,0.5724007643000277
001,3,25,5,target,old,1,0.9374012516000221
001,4,1,7,lure,new,1,0.7316981857000009
001,4,2,5,lure,new,1,0.6344984267000058
001,4,3,5,target,old,1,0.8039980063999934
001,4,4,3,lure,new,1,0.7885980445999934
001,4,5,3,target,old,1,0.7470981474999974
001,4,6,7,target,old,1,0.5574986177000198
001,4,7,7,lure,new,1,1.1774970803000144
001,4,8,7,target,old,1,0.8784978216999946
001,4,9,3,lure,new,1,0.7224982086000011
001,4,10,5,lure,new,1,0.8518978877000052
001,4,11,5,target,old,1,0.6144984762999854
001,4,12,5,lure,new,1,0.6056984981000255
001,4,13,7,target,old,1,0.5623986054999932
001,4,14,5,target,old,1,0.6814983102000269
001,4,15,7,lure,old,0,0.6342984272999956
001,4,16,3,target,old,1,0.7168982224000047
001,4,17,3,lure,new,1,0.6623983575000238
001,4,18,3,lure,new,1,0.9512976412000285
001,4,19,5,lure,new,1,0.8246979551000209
001,4,20,7,lure,new,1,0.8683978466999633
001,4,21,5,target,old,1,0.5428986539000107
001,4,22,3,lure,new,1,0.864797855699976
001,4,23,5,lure,new,1,1.0251974579999796
001,4,24,7,lure,new,1,0.9125977372000307
001,4,25,3,target,old,1,0.6888982918000011
002,1,1,7,lure,new,1,1.7141990191999987
002,1,2,5,target,old,1,1.1465993439000002
002,1,3,7,target,old,1,1.0524993978000055
002,1,4,5,lure,new,1,1.8658989322999986
002,1,5,3,target,old,1,1.011999420899997
002,1,6,7,lure,new,1,1.4832991513000024
002,1,7,3,target,old,1,0.8761994986000161
002,1,8,5,target,old,1,0.7861995501000081
002,1,9,5,lure,new,1,1.2160993042000143
002,1,10,5,target,old,1,1.3005992557999946
002,1,11,5,target,old,1,0.7738995572000249
002,1,12,7,target,old,1,1.093299374399976
002,1,13,3,target,old,1,0.912099478000016
002,1,14,5,target,old,1,0.8489995141000009
002,1,15,5,target,old,1,0.6820996097000034
002,1,16,3,target,old,1,0.7522995695999839
002,1,17,7,target,old,1,0.7434995744999924
002,1,18,7,lure,new,1,1.3234992426999952
002,1,19,3,lure,new,1,0.9664994469999897
002,1,20,7,lure,new,1,1.1446993449999354
002,1,21,3,target,old,1,0.8537995115000285
002,1,22,7,lure,new,1,1.0702993876000164
002,1,23,3,target,old,1,0.7910995473000639
002,1,24,3,lure,new,1,1.0654993903000332
002,1,25,5,lure,new,1,0.8861994929000048
002,2,1,3,target,old,1,0.547297651200001
002,2,2,7,lure,new,1,0.916896064999996
002,2,3,7,target,old,1,1.7590924506999954
002,2,4,3,lure,new,1,0.9500959225999992
002,2,5,5,target,old,1,0.9189960560999992
002,2,6,5,lure,new,1,0.9679958458000044
002,2,7,7,lure,new,1,1.0653954278000128
002,2,8,5,target,old,1,0.993495736299991
002,2,9,3,target,old,1,0.8172964926000077
002,2,10,3,lure,new,1,0.9717958294999676
002,2,11,3,target,old,1,0.7684967019999931
002,2,12,3,target,old,1,0.8403963933999989
002,2,13,7,lure,new,1,1.021895614400023
002,2,14,5,target,old,1,1.0639954338000166
002,2,15,5,lure,new,1,0.7513967753999964
002,2,16,7,target,old,1,0.8374964057999819
002,2,17,3,lure,new,1,0.8450963732000218
002,2,18,5,lure,new,1,0.8629962964000129
002,2,19,5,lure,new,1,0.7620967295000014
002,2,20,3,target,old,1,0.6807970782999746
002,2,21,7,lure,new,1,1.1552950420000343
002,2,22,7,target,old,1,0.9104960925999421
002,2,23,7,target,old,1,0.9724958264999941
002,2,24,3,target,old,1,0.684397062799917
002,2,25,5,target,old,1,0.6579971761999559
002,3,1,3,target,old,1,0.6210985192000003
002,3,2,3,target,old,1,0.752298206399999
002,3,3,7,target,old,1,1.0352975315999942
002,3,4,7,target,old,1,0.9580977156999921
002,3,5,7,lure,new,1,0.8655979363000199
002,3,6,5,target,old,1,0.9450977466999859
002,3,7,5,target,old,1,0.8301980205999939
002,3,8,7,target,old,1,0.939797759399994
002,3,9,3,lure,new,1,0.8630979421999996
002,3,10,3,lure,new,1,1.3456967916000053
002,3,11,5,target,old,1,1.163497226000004
002,3,12,5,lure,new,1,0.9681976916999702
002,3,13,7,target,old,1,0.45079892520004705
002,3,14,5,lure,new,1,0.9223978008000131
002,3,15,7,target,old,1,1.6248961259000225
002,3,16,7,target,old,1,0.9726976809000121
002,3,17,7,lure,new,1,1.2114971116000106
002,3,18,3,target,old,1,0.5489986910000653
002,3,19,3,lure,new,1,1.1775971923999577
002,3,20,7,target,old,1,0.7226982769999495
002,3,21,3,lure,new,1,1.1126973471000383
002,3,22,5,lure,new,1,0.7667981718000192
002,3,23,5,lure,new,1,1.1228973228000996
002,3,24,5,target,old,1,0.49769881340000666
002,3,25,3,target,old,1,0.9297977832000015
002,4,1,5,lure,new,1,0.8262977935000002
002,4,2,7,lure,new,1,0.8535977205999998
002,4,3,5,target,old,1,1.054897183099996
002,4,4,7,target,old,1,0.6311983145000113
002,4,5,5,target,old,1,0.7877978963000061
002,4,6,3,lure,new,1,0.7933978814000113
002,4,7,3,target,old,1,0.5417985532999978
002,4,8,3,target,old,1,0.7238980669999933
002,4,9,3,lure,new,1,0.7550979837000114
002,4,10,7,lure,new,1,1.107597042400016
002,4,11,5,target,old,1,0.6844981721999943
002,4,12,5,lure,new,1,0.9705974081999784
002,4,13,3,lure,new,1,0.8380977619999612
002,4,14,7,lure,new,1,0.914697557400018
002,4,15,5,lure,new,1,1.4815960436999944
002,4,16,5,target,old,1,0.4939986809000061
002,4,17,5,lure,new,1,1.0463972057999626
002,4,18,7,lure,new,1,0.9731974012000251
002,4,19,7,target,old,1,0.5325985778000586
002,4,20,7,target,old,1,0.5657984892000059
002,4,21,3,lure,new,1,0.9049975834000179
002,4,22,5,lure,new,1,0.7907978883000624
002,4,23,3,target,old,1,0.6946981449999612
002,4,24,3,lure,new,1,0.7703979427999457
002,4,25,7,lure,new,1,0.6988981336999132
003,1,1,5,target,old,1,1.8626943155000006
003,1,2,3,target,old,1,1.5928951389000048
003,1,3,7,target,old,1,0.9691970422999958
003,1,4,7,lure,new,1,1.6123950794000024
003,1,5,3,lure,new,1,0.9767970190000028
003,1,6,5,target,old,1,1.39009575770001
003,1,7,3,target,old,1,1.2212962728999912
003,1,8,7,target,old,1,1.2871960716999808
003,1,9,5,target,old,1,1.0068969272000174
003,1,10,5,target,old,1,1.123696570800007
003,1,11,3,target,old,1,1.229096249099996
003,1,12,5,target,old,1,1.9106941690999975
003,1,13,5,target,old,1,0.7626976724000087
003,1,14,5,lure,new,1,2.1007935889000464
003,1,15,5,lure,new,1,1.8928942233000043
003,1,16,3,target,old,1,0.9604970687999526
003,1,17,7,lure,new,1,2.05569372650001
003,1,18,5,lure,new,1,2.152293431700002
003,1,19,3,target,old,1,1.4811954797999647
003,1,20,7,lure,new,1,2.0007938940999566
003,1,21,7,target,old,1,1.4400956050999412
003,1,22,7,lure,new,1,1.87609427459995
003,1,23,3,target,old,1,1.876594273099954
003,1,24,3,lure,new,1,1.5488952732000598
003,1,25,7,lure,new,1,1.8040944942999886
003,2,1,5,target,old,1,1.5225973862999993
003,2,2,7,target,old,1,0.9872983051999995
003,2,3,3,target,old,1,1.2263978946999998
003,2,4,7,lure,new,1,4.1114929421999875
003,2,5,5,lure,new,1,1.2621978333000072
003,2,6,5,lure,new,1,1.262297833100007
003,2,7,3,lure,new,1,1.8093968940000025
003,2,8,7,lure,new,1,1.1425980385999992
003,2,9,5,lure,new,1,1.1123980904000064
003,2,10,7,target,old,1,1.1122980906000066
003,2,11,5,target,old,1,1.1701979911999842
003,2,12,3,target,old,1,1.3639976585000113
003,2,13,3,target,old,1,0.8083986122999818
003,2,14,7,lure,new,1,2.100596394100023
003,2,15,3,target,old,1,1.1939979503000018
003,2,16,3,target,old,1,1.1576980126999956
003,2,17,3,lure,new,1,1.3145977432999985
003,2,18,7,lure,new,1,2.028796517300009
003,2,19,5,lure,new,1,1.2574978412999371
003,2,20,7,target,old,1,1.7706969603999596
003,2,21,7,target,old,1,1.356397671600007
003,2,22,5,target,old,1,0.9714983323000297
003,2,23,3,lure,new,1,1.6305972009000698
003,2,24,5,target,old,1,1.0666981688999613
003,2,25,3,target,old,1,0.8076986134999515
003,3,1,5,lure,new,1,3.1935872082000003
003,3,2,7,target,old,1,1.280094872600003
003,3,3,5,lure,new,1,1.199895193900005
003,3,4,5,lure,new,1,1.7446930116999937
003,3,5,3,target,old,1,1.1000955936000025
003,3,6,7,lure,new,1,1.4246942935000106
003,3,7,5,target,old,1,1.2926948221000032
003,3,8,5,lure,new,1,2.7677889138000182
003,3,9,7,target,old,1,1.547893799999997
003,3,10,5,target,old,1,1.3575945622000063
003,3,11,3,target,old,1,0.8279966835000323
003,3,12,7,target,old,1,1.1481954009999527
003,3,13,7,target,old,1,1.1860952491999797
003,3,14,3,lure,new,1,1.070095713800015
003,3,15,3,target,old,1,0.9499961948999953
003,3,16,5,target,old,1,1.6521933821999824
003,3,17,7,target,old,1,2.1479913963000286
003,3,18,3,lure,new,1,1.4528941804999818
003,3,19,3,lure,new,1,1.1791952767999874
003,3,20,7,target,old,1,0.9807960715000945
003,3,21,7,target,old,1,1.1861952487000735
003,3,22,7,lure,new,1,1.5513937860000624
003,3,23,3,target,old,1,1.2576949623999099
003,3,24,3,lure,new,1,0.8362966501999836
003,3,25,5,target,old,1,1.9311922646999164
003,4,1,3,lure,new,1,1.2546959317000024
003,4,2,5,target,old,1,0.9613968826999937
003,4,3,3,target,old,1,1.1331963256000108
003,4,4,5,target,old,1,1.2882958227000074
003,4,5,3,lure,new,1,1.5066951145999923
003,4,6,5,lure,new,1,1.1582962441999882
003,4,7,7,target,old,1,1.452595289899989
003,4,8,3,lure,new,1,1.6817945468000062
003,4,9,5,target,old,1,1.071696524999993
003,4,10,5,lure,new,1,2.027493425800003
003,4,11,7,target,old,1,1.0395966291000036
003,4,12,3,lure,new,1,3.8372875575000194
003,4,13,7,lure,new,1,1.3118957461999798
003,4,14,3,lure,new,1,1.2146960613999909
003,4,15,5,lure,new,1,0.9541969059999929
003,4,16,5,target,old,1,0.7584975405000023
003,4,17,7,lure,new,1,0.9992967597999609
003,4,18,3,target,old,1,0.7185976698999639
003,4,19,5,lure,new,1,7.228376561999994
003,4,20,5,lure,new,1,1.131096332400034
003,4,21,7,target,new,0,1.3399956550999832
003,4,22,7,lure,new,1,1.0199966926001025
003,4,23,7,lure,new,1,2.6073915454999224
003,4,24,3,target,old,1,1.3563956018000454
003,4,25,7,lure,new,1,2.6870912870999746
004,1,1,5,target,old,1,1.1347944806
004,1,2,3,target,old,1,1.3616933771000035
004,1,3,7,lure,new,1,2.2589890128000008
004,1,4,5,target,old,1,1.188494219399999
004,1,5,5,lure,new,1,1.5513924543999735
004,1,6,3,lure,new,1,1.2345939952000151
004,1,7,7,target,old,1,1.3929932247999943
004,1,8,5,lure,new,1,1.7815913347000105
004,1,9,7,lure,new,1,1.6921917695999866
004,1,10,5,lure,new,1,1.1998941639999998
004,1,11,5,target,old,1,1.5304925561000005
004,1,12,7,target,old,1,1.1932941960999983
004,1,13,7,lure,new,1,1.336293500599993
004,1,14,3,lure,new,1,0.9602953292999814
004,1,15,5,target,old,1,1.146894421699983
004,1,16,7,lure,new,1,1.2496939216999863
004,1,17,7,lure,new,1,1.1365944719000254
004,1,18,3,target,old,1,0.8541958453999996
004,1,19,3,target,old,1,1.3145936061999919
004,1,20,3,target,old,1,3.229884290600012
004,1,21,5,target,old,1,0.9934951679000505
004,1,22,3,target,new,0,0.8691957725000066
004,1,23,5,target,old,1,1.5507924572999627
004,1,24,3,target,old,1,1.1964941804999398
004,1,25,7,target,old,1,1.309293631899891
004,2,2,5,lure,new,1,1.3268020244999974
004,2,3,5,target,old,1,1.0875016593999902
004,2,4,5,target,old,1,0.9687014781000016
004,2,5,5,lure,new,1,1.165001777599997
004,2,6,7,lure,old,0,1.0841016541999977
004,2,7,3,lure,new,1,2.415903686399986
004,2,8,3,target,old,1,1.8007027476000133
004,2,9,7,lure,new,1,1.220501862299983
004,2,10,5,lure,new,1,1.1538017605000164
004,2,11,3,target,old,1,1.0229015609000385
004,2,12,7,lure,new,1,1.6748025556000243
004,2,13,7,target,old,1,1.2707019389000038
004,2,14,7,target,old,1,1.0021015291000026
004,2,15,3,target,old,1,1.0584016149999798
004,2,16,3,lure,new,1,1.2680019348000542
004,2,17,5,target,old,1,0.9362014284999987
004,2,18,7,target,old,1,5.602908549399899
004,2,19,5,target,old,1,2.25500344080001
004,2,20,3,lure,new,1,1.227301872699968
004,2,21,3,target,old,1,0.7008010692999278
004,2,22,3,target,old,1,1.0030015305000006
004,2,23,7,lure,new,1,1.0711016343999518
004,2,24,3,target,old,1,0.9589014631000055
004,2,25,7,target,old,1,2.9615045189000284
004,3,1,3,target,old,1,1.6654053999999974
004,3,2,5,target,old,1,1.357204400700006
004,3,3,3,lure,new,1,1.1527037376000067
004,3,4,7,lure,new,1,1.0959035533999923
004,3,5,7,target,new,0,2.1728070453000043
004,3,6,7,target,old,1,1.6574053740999943
004,3,7,3,target,old,1,0.8636028001999989
004,3,8,7,target,old,1,1.2409040235999953
004,3,9,5,lure,new,1,1.199903890599984
004,3,10,3,target,old,1,1.3904045083000085
004,3,11,5,lure,new,1,2.0767067336000196
004,3,12,5,target,old,1,1.4279046300000005
004,3,13,5,target,new,0,1.7066055336999852
004,3,14,7,lure,new,1,1.5713050950000138
004,3,15,3,lure,new,1,1.0871035248999874
004,3,16,7,target,old,1,1.1305036657000187
004,3,17,7,target,old,1,1.6687054106999994
004,3,18,7,target,old,1,1.4344046511000101
004,3,19,5,target,old,1,0.9472030713000095
004,3,20,5,lure,new,1,2.3766077060999464
004,3,21,3,lure,new,1,1.787405795599966
004,3,22,5,lure,new,1,1.8220059079000066
004,3,23,3,target,old,1,1.045703390700055
004,3,24,3,lure,new,1,1.0944035485999848
004,3,25,7,target,old,1,2.960909600700006
004,4,1,5,lure,new,1,1.1326954630999992
004,4,2,7,lure,old,0,1.0444958162999995
004,4,3,3,target,old,1,2.816688717900007
004,4,4,5,lure,new,1,1.0281958817000003
004,4,5,7,lure,new,1,1.2276950825000057
004,4,6,7,lure,new,1,2.2016911812000046
004,4,7,3,target,old,1,1.1585953592999942
004,4,8,5,target,new,0,1.9208923060000131
004,4,9,3,target,old,1,0.9842960574000017
004,4,10,3,lure,new,1,2.0147919299000137
004,4,11,7,target,old,1,1.6325934606999795
004,4,12,7,target,old,1,1.2891948362000107
004,4,13,7,lure,new,1,1.5486937967999665
004,4,14,5,lure,new,1,1.3960944079999535
004,4,15,5,lure,new,1,1.3024947828999984
004,4,16,5,target,old,1,1.0699957141999903
004,4,17,3,lure,new,1,1.1644953356999963
004,4,18,7,lure,new,1,2.10299157649996
004,4,19,3,lure,new,1,0.9467962076000163
004,4,20,7,target,old,1,1.4255942898000171
004,4,21,3,lure,new,1,1.122995501899993
004,4,22,3,lure,new,1,1.621293506000029
004,4,23,5,target,old,1,1.284594854599959
004,4,24,5,target,old,1,0.904296377899982
004,4,25,5,lure,new,1,11.394954358099994
005,1,1,5,target,old,1,1.239594325499997
005,1,2,7,target,old,1,0.8874959373999971
005,1,3,7,target,old,1,0.9085958406999879
005,1,4,3,target,old,1,0.9304957404999925
005,1,5,5,target,old,1,0.8555960834000018
005,1,6,7,lure,new,1,1.0802950547000023
005,1,7,5,lure,new,1,1.1281948355999987
005,1,8,3,target,old,1,0.9033958644999984
005,1,9,5,target,old,1,1.1999945068000102
005,1,10,3,lure,new,1,0.989095472200006
005,1,11,3,lure,new,1,1.3902936357000044
005,1,12,7,lure,new,1,2.3698891514000024
005,1,13,5,target,old,1,1.2957940682999833
005,1,14,7,lure,new,1,1.6270925517000023
005,1,15,5,target,old,1,2.532388407600024
005,1,16,3,target,old,1,0.9294957450999846
005,1,17,3,target,old,1,1.1736946272999944
005,1,18,5,lure,new,1,2.108390348499995
005,1,19,7,lure,new,1,1.2250943919000292
005,1,20,3,target,old,1,1.0462952103999896
005,1,21,7,lure,new,1,2.426688891500021
005,1,22,3,target,old,1,3.188285405100032
005,1,23,5,target,old,1,0.8549960861000727
005,1,24,7,target,old,1,1.7044921973999863
005,1,25,5,lure,new,1,1.092994996600055
005,2,1,5,target,old,1,1.0592038385000002
005,2,2,3,target,old,1,1.2224044298999956
005,2,3,7,target,old,1,1.0416037746999933
005,2,4,3,lure,new,1,1.2520045372000084
005,2,5,5,lure,new,1,0.9703035162999925
005,2,6,7,target,old,1,0.9740035298000009
005,2,7,7,lure,new,1,0.9591034758000205
005,2,8,3,target,old,1,0.8021029068000018
005,2,9,3,lure,new,1,0.8316030137000041
005,2,10,3,target,old,1,1.2182044146999829
005,2,11,3,lure,new,1,0.887703216999995
005,2,12,5,lure,new,1,0.9040032760000258
005,2,13,5,lure,new,1,0.769402788299999
005,2,14,3,target,old,1,0.9624034876999872
005,2,15,3,target,old,1,0.9248033513999872
005,2,16,5,target,old,1,0.9552034616000356
005,2,17,5,lure,new,1,2.5976094135999688
005,2,18,7,lure,new,1,3.5459128502000112
005,2,19,5,target,old,1,1.5971057877999897
005,2,20,7,target,old,1,0.7549027357999876
005,2,21,7,lure,new,1,0.9662035014999901
005,2,22,3,target,old,1,0.9782035448999409
005,2,23,7,lure,old,0,2.311108375300023
005,2,24,5,target,old,1,3.8270138689000532
005,2,25,7,target,old,1,1.1399041309999802
005,3,1,7,target,old,1,1.2436950183999969
005,3,2,5,target,old,1,1.275594890699999
005,3,3,5,target,old,1,1.2193951158000118
005,3,4,7,target,old,1,1.5734936973999964
005,3,5,5,lure,old,0,1.3451946118999984
005,3,6,3,target,old,1,0.7142971388999797
005,3,7,3,target,old,1,1.112995541999993
005,3,8,5,lure,new,1,1.4734940980000033
005,3,9,3,target,old,1,1.1109955499999842
005,3,10,5,lure,new,1,1.9827920580999887
005,3,11,7,target,new,0,1.1209955098999558
005,3,12,3,lure,new,1,1.0764956881000103
005,3,13,7,target,old,1,1.3912944271999663
005,3,14,7,target,old,1,0.9291962780999938
005,3,15,5,lure,new,1,0.9789960786999927
005,3,16,7,target,old,1,1.5308938681000086
005,3,17,7,target,old,1,2.009591950699985
005,3,18,5,target,old,1,1.0740956978000327
005,3,19,7,lure,new,1,1.8091927533999979
005,3,20,7,lure,new,1,3.8564845531000174
005,3,21,3,lure,new,1,1.3870944441000006
005,3,22,5,target,old,1,1.2874948429999904
005,3,23,3,target,old,1,1.067895722600042
005,3,24,3,lure,new,1,1.4349942521999992
005,3,25,3,lure,new,1,1.2266950864999444
005,4,1,3,lure,new,1,1.0093032726000004
005,4,2,5,lure,new,1,1.0361033594999967
005,4,3,3,lure,new,1,1.405604557700002
005,4,4,5,lure,new,1,1.2798041496999986
005,4,5,7,target,old,1,1.0890035310999906
005,4,6,5,lure,new,1,0.9151029671999993
005,4,7,5,target,old,1,1.1441037097000049
005,4,8,3,lure,new,1,1.466204754100005
005,4,9,3,lure,new,1,2.1891070981999974
005,4,10,3,target,old,1,1.0929035437000039
005,4,11,7,lure,new,1,2.0076065096000093
005,4,12,7,lure,old,0,1.3656044278999957
005,4,13,5,lure,new,1,1.1318036697999787
005,4,14,3,target,old,1,1.032203346900019
005,4,15,5,target,old,1,1.0141032881999763
005,4,16,7,lure,new,1,2.502508114299985
005,4,17,5,lure,new,1,1.0297033387999477
005,4,18,3,target,old,1,1.302004221700031
005,4,19,3,lure,new,1,1.6730054246999657
005,4,20,5,target,old,1,1.0384033670000008
005,4,21,7,target,old,1,1.2840041633000396
005,4,22,7,target,old,1,1.7654057243000807
005,4,23,7,lure,new,1,2.5198081703999833
005,4,24,5,target,old,1,0.6801022052000008
005,4,25,7,lure,new,1,2.6140084758999365
006,1,3,3,target,new,0,5.093090771299984
006,1,6,3,target,old,1,0.8431984720999992
006,1,7,5,target,old,1,0.9983981908999908
006,1,8,5,target,old,1,0.9374983013000247
006,1,9,7,lure,new,1,0.6879987533999952
006,1,10,7,lure,new,1,0.8280984995000154
006,1,11,7,lure,old,0,1.0280981370999598
006,1,12,7,lure,new,1,1.060898077700017
006,1,13,3,target,new,0,0.6428988351000271
006,1,14,5,target,old,1,0.9828982190000488
006,1,15,5,lure,new,1,0.959398261600029
006,1,16,3,target,old,1,0.6804987669000298
006,1,17,5,lure,new,1,1.045498105599961
006,1,18,7,target,old,1,0.9238983258999269
006,1,19,3,lure,new,1,0.7060987205999254
006,1,20,5,target,old,1,0.9356983044999652
006,1,21,5,target,old,1,0.5957989204000569
006,1,22,3,lure,new,1,1.0260981407000145
006,1,23,5,target,old,1,0.8863983937999365
006,1,24,7,lure,new,1,0.6627987990000292
006,1,25,3,target,old,1,0.8247985054999845
006,2,1,5,lure,new,1,0.7243992400999986
006,2,2,7,target,old,1,0.7239992403999977
006,2,3,3,lure,new,1,0.4884994874999933
006,2,4,7,lure,old,0,0.9669989856000001
006,2,5,3,target,old,1,0.7456992178000093
006,2,6,5,target,old,1,0.8858990706999919
006,2,7,7,lure,new,1,0.799099161699985
006,2,8,5,target,old,1,1.0223989273999905
006,2,9,5,lure,new,1,0.9405990132999875
006,2,10,7,lure,new,1,0.8047991556999818
006,2,11,5,lure,new,1,0.7226992418000009
006,2,12,5,target,old,1,1.0175989324999932
006,2,13,5,target,old,1,0.8584990993999781
006,2,14,7,target,old,1,0.8322991269000113
006,2,15,3,target,old,1,0.8238991357000032
006,2,16,7,lure,new,1,0.744299219200002
006,2,17,3,target,old,1,0.869099088300004
006,2,18,3,target,old,1,0.7196992450000153
006,2,19,3,target,old,1,0.8748990821999882
006,2,20,3,target,old,1,0.7847991767000053
006,2,21,7,target,old,1,0.6834992830000033
006,2,22,7,target,old,1,0.9406990131000157
006,2,23,3,lure,new,1,0.8135991464999961
006,2,24,5,lure,new,1,0.7516992114000232
006,2,25,3,lure,new,1,0.8624990952000644
006,3,1,7,target,old,1,0.8294006328000023
006,3,2,7,lure,new,1,0.9090006934999977
006,3,3,3,lure,new,1,1.4361010956000086
006,3,4,7,target,old,1,0.7107005422000015
006,3,5,5,target,old,1,0.7420005661000033
006,3,6,7,lure,new,1,0.7936006055000178
006,3,7,7,target,old,1,0.7653005839000002
006,3,8,5,lure,new,1,0.7896006024000144
006,3,9,5,target,old,1,0.6680005095999775
006,3,10,7,target,old,1,1.163300887499986
006,3,11,3,lure,new,1,1.046500798400018
006,3,12,5,target,old,1,0.8240006286000039
006,3,13,3,target,old,1,0.8235006282999962
006,3,14,5,lure,new,1,0.6655005078000045
006,3,15,5,lure,new,1,0.9464007219999644
006,3,16,5,lure,new,1,0.7932006051000258
006,3,17,3,target,old,1,0.7953006067999695
006,3,18,3,target,old,1,0.4911003746000233
006,3,19,3,lure,new,1,0.7319005583999569
006,3,20,7,target,old,1,0.9152006982000103
006,3,21,3,target,old,1,0.5073003870999742
006,3,22,3,lure,new,1,1.0780008223999857
006,3,23,5,target,new,0,0.7014005350999923
006,3,24,7,target,old,1,0.6735005137999224
006,3,25,7,target,old,1,0.78970060249992
006,4,1,3,target,old,1,1.7317902557000018
006,4,2,5,target,old,1,0.6571963020999974
006,4,3,7,lure,new,1,0.6203965091999919
006,4,4,5,target,old,1,0.7658956905999901
006,4,5,5,lure,new,1,0.8062954632000014
006,4,6,3,lure,new,1,0.5937966589000041
006,4,7,7,target,old,1,1.1193937015000017
006,4,8,7,lure,new,1,0.7396958379000012
006,4,9,5,lure,new,1,0.7851955820000001
006,4,10,7,target,old,1,0.5063971506999962
006,4,11,5,lure,new,1,0.5466969238999866
006,4,12,7,lure,new,1,0.657196302099976
006,4,13,3,target,old,1,0.7648956961999716
006,4,14,3,lure,new,1,0.6252964816000031
006,4,15,5,lure,new,1,0.8820950367000364
006,4,16,5,target,new,0,2.8328840602000014
006,4,17,5,lure,new,1,0.8124954282999965
006,4,18,7,lure,new,1,0.7218959381000332
006,4,19,7,lure,new,1,0.7242959246000282
006,4,20,5,target,old,1,1.0550940633000323
006,4,21,7,target,old,1,0.600296622299993
006,4,22,3,target,old,1,0.9544946292999725
006,4,23,3,lure,new,1,0.7253959184999985
006,4,24,3,lure,new,1,0.7554957490999641
006,4,25,3,lure,new,1,0.6167965294000624
007,1,1,5,target,old,1,1.0803979392999992
007,1,2,7,lure,new,1,0.8823983170000034
007,1,3,3,target,old,1,0.7791985137999973
007,1,4,7,lure,new,1,0.8520983747000059
007,1,5,3,target,old,1,0.9012982808999936
007,1,6,5,target,old,1,0.8127984496999829
007,1,7,7,target,old,1,0.9123982597999998
007,1,8,3,target,old,1,0.9247982361000027
007,1,9,3,target,old,1,0.44729914680002025
007,1,10,5,lure,new,1,0.771598528200002
007,1,11,3,target,old,1,0.7454985781000119
007,1,12,5,target,old,1,0.7260986150000122
007,1,13,7,lure,new,1,1.0020980886000075
007,1,14,5,target,old,1,1.1270978502000162
007,1,15,3,target,old,1,0.8635983528000111
007,1,16,5,target,old,1,0.666398728899992
007,1,17,5,lure,new,1,2.6877948734999677
007,1,18,7,target,old,1,0.8527983733999918
007,1,19,5,target,old,1,0.9062982713000451
007,1,20,3,lure,new,1,1.4436972464000064
007,1,21,7,lure,new,1,1.3665973934000135
007,1,22,7,target,old,1,1.0486979998000265
007,1,23,7,lure,new,1,0.7614985476000129
007,1,24,5,lure,new,1,1.2849975491000123
007,1,25,3,lure,new,1,1.4488972364000574
007,2,1,7,target,old,1,1.2699935808999996
007,2,2,3,target,old,1,0.9795950486999985
007,2,3,7,lure,new,1,3.3474830801000053
007,2,4,7,lure,new,1,1.518992322199992
007,2,5,5,target,old,1,1.4442926998000019
007,2,6,7,lure,new,1,0.6690966179999975
007,2,7,3,lure,new,1,0.872695589000017
007,2,8,5,target,old,1,1.3396932285000105
007,2,9,5,target,old,1,1.0977944512000022
007,2,10,3,target,old,1,1.717791317400014
007,2,11,5,lure,new,1,1.4383927297000128
007,2,12,3,target,old,1,0.9547951739999689
007,2,13,3,target,old,1,0.7990959610000345
007,2,14,3,target,old,1,0.7347962860000052
007,2,15,3,target,old,1,0.6200968658000079
007,2,16,5,target,old,1,0.935495271499974
007,2,17,5,lure,new,1,0.9412952421999989
007,2,18,3,lure,new,1,0.9201953488999948
007,2,19,7,target,old,1,1.5976919244999976
007,2,20,3,lure,new,1,0.9689951021999832
007,2,21,5,lure,new,1,1.95839010130004
007,2,22,7,target,old,1,1.284593507000011
007,2,23,5,lure,new,1,1.1998939351000217
007,2,24,7,lure,new,1,1.5377922272000433
007,2,25,7,target,old,1,1.1402942363999955
007,3,1,5,lure,new,1,1.9590953292000002
007,3,2,5,lure,new,1,1.0390975226000023
007,3,3,3,lure,new,1,1.788995734699995
007,3,4,7,target,new,0,2.7154935256999977
007,3,5,3,target,old,1,0.8320980161000051
007,3,6,7,lure,new,1,1.2082971192000116
007,3,7,7,lure,new,1,1.2465970278999805
007,3,8,3,target,old,1,1.1953971499000033
007,3,9,3,target,old,1,0.8002980920000198
007,3,10,7,target,old,1,0.7779981450999855
007,3,11,7,target,old,1,1.0294975455000213
007,3,12,5,lure,new,1,1.127697311400027
007,3,13,3,target,old,1,1.881595513900038
007,3,14,5,target,old,1,1.2603969950000078
007,3,15,3,lure,new,1,0.888197882399993
007,3,16,5,target,old,1,1.036997527599965
007,3,17,3,lure,new,1,1.1010973748000197
007,3,18,5,target,old,1,1.282196942999974
007,3,19,7,target,old,1,0.7678981692000093
007,3,20,7,target,old,1,1.7383958554000287
007,3,21,5,lure,new,1,0.7353982465999707
007,3,22,7,target,old,1,0.904797842799951
007,3,23,7,target,old,1,1.2619969911999078
007,3,24,5,target,old,1,0.8273980272999779
007,3,25,3,lure,new,1,1.022797561500056
007,4,1,5,lure,new,1,0.8377000000000017
007,4,2,5,lure,new,1,1.1387
007,4,3,3,target,old,1,1.6129999999999995
007,4,4,7,lure,new,1,1.8174999999999955
007,4,5,5,target,old,1,2.8722000000000065
007,4,6,5,target,old,1,1.0729000000000042
007,4,7,5,lure,new,1,1.0955000000000155
007,4,8,3,lure,new,1,0.9198999999999842
007,4,9,7,lure,new,1,1.0465999999999838
007,4,10,7,target,old,1,1.2789999999999964
007,4,11,3,target,old,1,1.012500000000017
007,4,12,7,target,old,1,0.9968999999999824
007,4,13,3,target,old,1,0.8453999999999837
007,4,14,7,lure,new,1,1.5020000000000095
007,4,15,5,target,old,1,1.1123000000000047
007,4,16,5,lure,new,1,0.7794000000000096
007,4,17,3,lure,new,1,0.612700000000018
007,4,18,5,target,old,1,0.7195999999999572
007,4,19,3,lure,new,1,0.6290000000000191
007,4,20,7,lure,new,1,2.102300000000014
007,4,21,7,lure,new,1,1.414699999999982
007,4,22,7,target,old,1,1.7072999999999752
007,4,23,3,lure,new,1,1.2749000000000024
007,4,24,3,lure,new,1,1.133899999999926
007,4,25,5,lure,new,1,0.7379999999999427
008,1,2,5,lure,new,1,0.9883983974999992
008,1,3,7,target,old,1,1.2248980142000079
008,1,4,3,lure,new,1,0.8458986285000094
008,1,5,7,lure,new,1,1.2227980175999846
008,1,6,7,lure,new,1,0.673998907299989
008,1,7,5,target,old,1,1.1073982046000026
008,1,8,3,target,old,1,0.8289986560000102
008,1,9,3,target,old,1,0.9318984891999946
008,1,10,5,target,old,1,0.7628987631999848
008,1,11,3,target,old,1,0.9829984062999984
008,1,12,3,lure,new,1,0.788098722299992
008,1,13,5,target,old,1,0.9843984039999896
008,1,14,3,target,old,1,0.8933985515000131
008,1,15,7,lure,new,1,0.9519984566000517
008,1,16,7,lure,new,1,0.6980988682000202
008,1,17,7,lure,new,1,0.7634987621999585
008,1,18,7,target,old,1,1.0486982997999803
008,1,19,3,target,old,1,0.9476984634999894
008,1,20,3,target,old,1,0.8269986591999441
008,1,21,5,target,old,1,1.199898054699986
008,1,22,5,target,old,1,0.9133985191999727
008,1,23,7,target,old,1,1.753697156800058
008,1,24,5,lure,new,1,0.9368984811000018
008,1,25,5,lure,new,1,0.6808988960999613
008,2,1,7,lure,new,1,1.1393026076000012
008,2,2,5,target,old,1,0.9416021552000018
008,2,3,7,target,old,1,0.7458017069999983
008,2,4,3,target,old,1,0.8202018772000059
008,2,5,5,lure,new,1,0.93550214119999
008,2,6,5,target,old,1,0.7206016492999936
008,2,7,3,target,old,1,0.6434014727000203
008,2,8,7,target,new,0,1.2275028094999811
008,2,9,5,lure,new,1,0.7686017592000098
008,2,10,3,lure,new,1,0.7432017010999914
008,2,11,5,target,old,1,0.922802112099987
008,2,12,3,lure,new,1,0.671601537200047
008,2,13,7,target,old,1,0.888102032699976
008,2,14,7,lure,new,1,0.6763015478999819
008,2,15,3,target,old,1,0.5921013551999863
008,2,16,7,lure,new,1,0.721901652300005
008,2,17,7,target,new,0,0.7271016642000063
008,2,18,3,target,old,1,0.5918013545999656
008,2,19,5,lure,new,1,0.6355014545999893
008,2,20,3,target,old,1,0.6599015104000046
008,2,21,5,lure,new,1,0.9908022677999497
008,2,22,3,target,old,1,0.893402044800041
008,2,23,7,lure,new,1,0.6332014493000315
008,2,24,5,target,old,1,0.5886013471999831
008,2,25,3,lure,new,1,0.602401378799982
008,3,1,3,lure,new,1,0.6118012835999984
008,3,2,3,lure,new,1,0.844301771400005
008,3,3,5,lure,new,1,0.7132014964000035
008,3,4,5,target,old,1,0.845901774799998
008,3,5,7,target,old,1,0.574601205499988
008,3,6,7,target,old,1,0.5129010761000075
008,3,7,5,lure,new,1,0.4720009902999891
008,3,8,5,lure,new,1,0.6863014399000065
008,3,9,7,target,new,0,0.744701562399996
008,3,10,5,lure,new,1,0.6347013315999845
008,3,11,5,target,old,1,0.44350093049999373
008,3,12,3,target,old,1,0.6178012962000139
008,3,13,7,target,old,1,0.5335011193000128
008,3,14,7,target,old,1,0.6253013118999888
008,3,15,3,lure,new,1,0.5439011410999797
008,3,16,3,lure,new,1,0.5417011364999667
008,3,17,5,target,old,1,0.68130142939998
008,3,18,3,target,old,1,0.586501230500005
008,3,19,7,target,old,1,0.7018014724999944
008,3,20,7,lure,new,1,0.6427013484999975
008,3,21,3,target,old,1,0.6737014134999981
008,3,22,3,target,old,1,0.5449011432000361
008,3,23,7,lure,new,1,0.7104014904999758
008,3,24,5,target,old,1,0.7885016543000347
008,3,25,7,target,new,0,0.8028016844000376
008,4,1,7,target,old,1,0.7549978398999997
008,4,2,5,target,old,1,0.6558981234000001
008,4,3,3,lure,new,1,0.7922977332000016
008,4,4,3,lure,old,0,0.862697531799995
008,4,5,3,target,old,1,0.6074982620000071
008,4,6,7,target,old,1,0.49909857209999586
008,4,7,3,lure,new,1,0.5650983831999952
008,4,8,7,lure,new,1,0.9805971945000067
008,4,9,5,lure,new,1,0.5852983254000037
008,4,10,7,target,new,0,0.5754983534999951
008,4,11,5,lure,new,1,0.6497981409000033
008,4,12,7,lure,new,1,0.8626975318000518
008,4,13,5,lure,new,1,0.5897983124999655
008,4,14,3,target,old,1,1.0091971126000203
008,4,15,5,target,old,1,0.6822980479000194
008,4,16,7,lure,new,1,0.7343978988999993
008,4,17,5,target,old,1,0.7596978264999734
008,4,18,3,lure,new,1,0.5641983858000117
008,4,19,7,lure,new,1,0.6041982714000369
008,4,20,3,lure,new,1,0.6004982819999896
008,4,21,7,lure,old,0,0.8433975869999699
008,4,22,5,lure,new,1,0.6398981692000234
008,4,23,5,target,old,1,0.74089788029994
008,4,24,3,target,old,1,0.5606983958000455
008,4,25,5,lure,new,1,0.7173979474999896
009,1,1,7,target,old,1,2.189697285200001
009,1,2,5,target,new,0,2.5930967852000038
009,1,3,7,target,old,1,1.422698236100004
009,1,4,7,target,old,1,1.1302985986999943
009,1,5,5,lure,new,1,2.263597193700008
009,1,6,3,lure,new,1,1.4422982118999812
009,1,7,5,target,old,1,1.1840985320000073
009,1,8,5,lure,new,1,2.3202971233000085
009,1,9,7,lure,new,1,1.4651981835000072
009,1,10,3,lure,new,1,1.1504985736000037
009,1,11,5,target,old,1,1.0342987176999827
009,1,12,5,target,old,1,1.2306984742000395
009,1,13,3,target,old,1,1.7473978336000187
009,1,14,3,target,old,1,0.8801989086999811
009,1,15,7,lure,new,1,1.5371980942999812
009,1,16,7,lure,new,1,1.1320985963999988
009,1,17,3,target,old,1,1.4541981971000268
009,1,18,7,lure,new,1,1.7605978171999936
009,1,19,3,target,old,1,1.7034978879999585
009,1,20,5,lure,new,1,1.8398977189000334
009,1,21,5,target,old,1,1.3740982964000068
009,1,22,7,lure,new,1,2.072097431100019
009,1,23,3,target,old,1,1.3319983485999956
009,1,24,5,target,new,0,1.4863981571999147
009,1,25,3,target,old,1,1.5319981006999797
009,2,1,3,target,old,1,1.1200974363
009,2,2,7,target,old,1,1.3418969287000024
009,2,3,3,target,old,1,0.9779977615000064
009,2,4,7,target,old,1,1.9075956337999997
009,2,5,7,lure,new,1,1.2959970336000026
009,2,6,5,target,old,1,1.2606971144999761
009,2,7,7,target,new,0,2.4888943033000146
009,2,8,5,lure,new,1,3.8575911705999886
009,2,9,3,target,old,1,1.104797471300003
009,2,10,7,lure,new,1,1.997795427400007
009,2,11,3,target,old,1,1.5059965529999886
009,2,12,5,target,old,1,1.128497417099993
009,2,13,3,target,old,1,0.8628980249999927
009,2,14,5,target,old,1,1.129497414799971
009,2,15,5,target,old,1,0.740498305199992
009,2,16,7,target,old,1,1.9258955919999607
009,2,17,3,lure,new,1,2.1735950249999973
009,2,18,7,lure,new,1,1.6229962853000188
009,2,19,7,lure,new,1,2.3944945193999843
009,2,20,5,lure,new,1,1.436496712099995
009,2,21,3,lure,new,1,1.1998972536000565
009,2,22,3,target,old,1,1.2327971783000748
009,2,23,5,lure,new,1,1.2844970599999215
009,2,24,3,lure,new,1,1.9738954820999197
009,2,25,5,lure,new,1,1.1999972534000563
009,3,1,5,target,old,1,1.223600233300001
009,3,2,3,target,old,1,2.4398004654000047
009,3,3,7,target,old,1,1.2722002425999932
009,3,4,7,target,old,1,1.5440002945000089
009,3,5,5,target,old,1,1.0400001983999942
009,3,6,7,lure,new,1,1.0651002031000019
009,3,7,7,lure,new,1,1.2519002388000047
009,3,8,3,target,old,1,1.2320002350000152
009,3,9,5,lure,new,1,2.3229004430999964
009,3,10,3,target,old,1,1.1282002151999961
009,3,11,7,target,old,1,2.504000477600016
009,3,12,3,lure,new,1,0.8843001685999639
009,3,13,5,lure,new,1,0.8683001657000204
009,3,14,5,target,old,1,1.4626002789999575
009,3,15,7,target,old,1,1.0226001949999954
009,3,16,3,lure,new,1,2.1723004142999685
009,3,17,5,lure,new,1,1.9799003776000177
009,3,18,3,lure,new,1,2.233400426000003
009,3,19,5,lure,new,1,1.3895002651000254
009,3,20,7,target,old,1,1.1726002236
009,3,21,3,target,old,1,1.16840022279996
009,3,22,7,target,old,1,1.3915002653999409
009,3,23,7,target,old,1,1.4122002693000013
009,3,24,5,target,old,1,1.3482002570999612
009,3,25,3,lure,new,1,1.389400265000063
009,4,1,7,target,old,1,1.4567977771000002
009,4,2,3,target,old,1,1.9009970992999996
009,4,3,3,lure,new,1,1.319797986199987
009,4,4,7,lure,new,1,1.17029821429999
009,4,5,5,target,old,1,2.3344964379000146
009,4,6,5,target,old,1,1.0612983805999932
009,4,7,3,lure,new,1,1.5787975908999954
009,4,8,3,target,old,1,2.3239964539000084
009,4,9,7,lure,new,1,1.3018980134999936
009,4,10,5,target,old,1,1.4408978014000127
009,4,11,5,lure,new,1,0.9699985198999457
009,4,12,5,lure,new,1,1.427997821100007
009,4,13,3,target,old,1,0.936998570299977
009,4,14,7,target,old,1,2.063696851100019
009,4,15,7,lure,new,1,3.092795280799976
009,4,16,7,target,old,1,1.213398148500005
009,4,17,7,lure,new,1,2.57409607219995
009,4,18,5,target,old,1,2.070396840800015
009,4,19,7,lure,new,1,1.3157979921999754
009,4,20,5,lure,new,1,1.0914983344999882
009,4,21,5,lure,new,1,2.4875962042999618
009,4,22,3,lure,new,1,1.0961983273000442
009,4,23,5,lure,new,1,2.990795436399935
009,4,24,3,lure,new,1,1.7471973340000204
009,4,25,3,lure,new,1,1.1395982610999909
010,1,1,5,lure,new,1,1.1173961637000005
010,1,2,7,lure,new,1,0.8518970752000001
010,1,3,3,target,old,1,2.433591644899991
010,1,4,7,lure,new,1,1.218195817700007
010,1,5,3,target,old,1,1.0627963511999923
010,1,6,3,target,old,1,1.5646946279999838
010,1,7,3,target,old,1,0.8998969105000185
010,1,8,5,target,old,1,1.440495054400003
010,1,9,5,target,old,1,1.0812962876000256
010,1,10,5,target,old,1,0.8197971854999935
010,1,11,5,lure,new,1,1.0726963171999842
010,1,12,5,target,old,1,1.4093951611999955
010,1,13,5,target,old,1,1.0784962972999779
010,1,14,3,lure,new,1,1.160096017199976
010,1,15,3,target,old,1,1.4161951378999902
010,1,16,7,target,old,1,1.2733956280999905
010,1,17,7,target,old,1,0.9641966897000316
010,1,18,7,lure,new,1,0.9714966645999539
010,1,19,7,lure,new,1,0.8321971428999859
010,1,20,3,target,old,1,0.7266975049999473
010,1,21,7,lure,new,1,1.0220964909000259
010,1,22,7,target,new,0,2.194092467100063
010,1,23,5,target,old,1,1.0026965575000304
010,1,24,3,lure,new,1,1.1334961084999122
010,1,25,5,lure,new,1,0.9331967960999918
010,2,1,7,target,old,1,1.3130962432000004
010,2,2,5,lure,new,1,0.9165973775999987
010,2,3,3,target,old,1,0.841397592800007
010,2,4,5,target,old,1,0.7692977990000003
010,2,5,3,lure,new,1,0.8373976042000066
010,2,6,5,lure,new,1,0.9420973046999848
010,2,7,7,lure,old,0,1.059096969899997
010,2,8,7,lure,new,1,0.9421973042999809
010,2,9,5,target,old,1,1.0512969922000082
010,2,10,7,target,old,1,1.0904968801000052
010,2,11,3,lure,new,1,0.8871974616999978
010,2,12,5,lure,new,1,0.9432973012000048
010,2,13,7,target,old,1,1.262196388800021
010,2,14,3,lure,new,1,0.8401975962000279
010,2,15,7,lure,old,0,1.1415967339000304
010,2,16,5,target,old,1,0.7354978957000071
010,2,17,3,target,old,1,0.8062976932000083
010,2,18,7,target,old,1,1.061196963899988
010,2,19,3,target,old,1,0.91739737529997
010,2,20,5,lure,new,1,1.2955962932999796
010,2,21,3,target,old,1,0.7068979775000344
010,2,22,3,target,old,1,0.6353981820999479
010,2,23,5,target,old,1,1.259496396500026
010,2,24,3,target,old,1,0.748897857299994
010,2,25,7,lure,new,1,1.1054968370999632
010,3,1,7,target,old,1,0.8552955954000012
010,3,2,5,lure,new,1,1.0233947295999997
010,3,3,3,target,old,1,0.6761965177000064
010,3,4,3,lure,new,1,1.6486915093999954
010,3,5,7,target,old,1,0.9136952946000036
010,3,6,3,lure,new,1,0.7066963606000058
010,3,7,7,target,old,1,0.7777959944999964
010,3,8,7,target,old,1,0.5975969225000028
010,3,9,5,target,old,1,0.7453961612999933
010,3,10,5,lure,new,1,1.4311926295000035
010,3,11,5,target,old,1,0.8380956838999793
010,3,12,3,target,old,1,1.1923938593999992
010,3,13,5,target,old,1,0.7803959810000265
010,3,14,5,lure,old,0,0.9843949305000024
010,3,15,7,target,old,1,1.1446941050000419
010,3,16,5,lure,new,1,1.0077948100000071
010,3,17,5,target,old,1,0.9028953501999695
010,3,18,3,target,old,1,0.6827964837000309
010,3,19,3,lure,new,1,0.8043958575000261
010,3,20,3,lure,new,1,1.021694738400015
010,3,21,7,lure,new,1,1.0155947698000318
010,3,22,7,target,old,1,0.7337962209999205
010,3,23,7,lure,new,1,1.0698944901999994
010,3,24,7,target,new,0,1.24979356380004
010,3,25,3,target,old,1,1.069094494299975
010,4,1,7,lure,new,1,1.052695181099999
010,4,2,7,target,old,1,1.628392545799997
010,4,3,7,target,old,1,0.9278957524000049
010,4,4,5,lure,new,1,1.4104935432999923
010,4,5,3,target,old,1,0.7145967289000055
010,4,6,3,lure,new,1,0.7745964542000081
010,4,7,3,lure,new,1,0.9597956064000073
010,4,8,7,lure,new,1,1.149694737099992
010,4,9,5,target,old,1,0.7555965411999921
010,4,10,7,lure,new,1,2.0133907832999967
010,4,11,3,lure,new,1,0.7367966271999649
010,4,12,5,lure,new,1,1.072395090900045
010,4,13,5,target,old,1,1.3541938008999637
010,4,14,5,lure,new,1,0.9026958678000483
010,4,15,5,lure,new,1,0.8820959620999815
010,4,16,7,target,old,1,1.1184948800000143
010,4,17,5,target,old,1,0.8110962871000424
010,4,18,3,lure,new,1,0.795196359800002
010,4,19,7,lure,new,1,0.9816955060999817
010,4,20,5,lure,new,1,0.7900963831999661
010,4,21,7,lure,new,1,1.2349943466999775
010,4,22,5,target,old,1,1.199994506899941
010,4,23,3,target,old,1,0.7089967545000491
010,4,24,3,target,old,1,0.9054958548999821
010,4,25,3,lure,new,1,0.9453956722999237
011,1,1,5,lure,new,1,1.9618014967000015
011,1,2,3,target,old,1,1.853401414000004
011,1,3,5,target,old,1,1.4476011044000074
011,1,4,7,target,old,1,1.2530009559000064
011,1,5,5,target,old,1,1.0471007988000167
011,1,6,5,target,old,1,0.7587005787999885
011,1,7,3,target,old,1,1.0833008264999933
011,1,8,5,target,old,1,0.5139003920000107
011,1,9,5,lure,new,1,1.1634008876000053
011,1,10,3,lure,new,1,0.9724007419000031
011,1,11,7,lure,new,1,1.4574011118999692
011,1,12,7,lure,new,1,2.977502271600031
011,1,13,3,target,old,1,1.746401332400012
011,1,14,7,lure,new,1,1.307900997899992
011,1,15,7,lure,new,1,1.8867014394999728
011,1,16,5,target,old,1,1.3116010007000227
011,1,17,7,target,old,1,1.1751008966000427
011,1,18,3,target,old,1,1.511601153200047
011,1,19,5,lure,new,1,1.0408007940999369
011,1,20,3,lure,new,1,1.0430007957999123
011,1,21,5,target,old,1,1.0637008116000288
011,1,22,3,target,old,1,1.122600856399913
011,1,23,7,lure,new,1,2.538401936600053
011,1,24,3,target,old,1,2.242001710499949
011,1,25,7,target,old,1,2.337401783300038
011,2,1,5,lure,new,1,1.2232009331999976
011,2,2,5,lure,new,1,1.303100994199994
011,2,3,5,target,old,1,1.1743008959000036
011,2,4,3,lure,new,1,0.8867006764999985
011,2,5,7,lure,new,1,1.3283010133999937
011,2,6,5,lure,new,1,2.0244015444999945
011,2,7,3,target,old,1,1.2032009179999932
011,2,8,7,target,old,1,1.7955013698999664
011,2,9,5,target,old,1,0.9883007539999653
011,2,10,3,target,old,1,1.513501154700009
011,2,11,3,target,old,1,1.1539008803999877
011,2,12,5,target,old,1,1.1896009075999814
011,2,13,7,target,old,1,1.9844015140000124
011,2,14,3,target,old,1,0.8347006367999938
011,2,15,3,lure,new,1,1.2862009812999986
011,2,16,3,lure,new,1,1.3170010047999767
011,2,17,5,target,old,1,1.1425008717000082
011,2,18,7,target,old,1,0.9942007585000283
011,2,19,7,lure,new,1,1.6309012443000483
011,2,20,7,target,old,1,1.012800772700075
011,2,21,5,lure,new,1,0.947000722499979
011,2,22,3,target,old,1,4.056803095100008
011,2,23,7,lure,new,1,0.977400745700038
011,2,24,7,lure,old,0,1.7225013140999863
011,2,25,3,target,old,1,1.0660008132999792
011,3,1,7,target,old,1,0.9354969665999988
011,3,2,3,lure,new,1,2.805490903100008
011,3,3,3,target,old,1,1.067996537100015
011,3,4,7,target,old,1,0.9297969850999834
011,3,5,7,target,old,1,1.0014967527000067
011,3,6,3,lure,new,1,1.2099960765999924
011,3,7,7,lure,new,1,1.0201966921000007
011,3,8,3,target,old,1,0.7700975029000006
011,3,9,3,target,old,1,0.8277973158999998
011,3,10,7,target,old,1,0.903897069099969
011,3,11,7,target,old,1,1.0342966462999925
011,3,12,5,lure,old,0,1.1007964305999849
011,3,13,5,lure,new,1,1.0845964832000163
011,3,14,5,target,old,1,0.9671968639000283
011,3,15,3,lure,new,1,0.9003970804000119
011,3,16,5,target,old,1,0.8084973784999647
011,3,17,5,lure,new,1,1.391795487100012
011,3,18,7,target,old,1,0.8581972173000167
011,3,19,3,lure,new,1,1.05549657749998
011,3,20,7,lure,new,1,0.8038973934000069
011,3,21,5,target,old,1,0.884497132100023
011,3,22,3,target,old,1,1.0408966249000287
011,3,23,5,lure,new,1,1.166096218899952
011,3,24,5,target,old,1,0.8571972204999838
011,3,25,7,target,old,1,2.08349324430003
011,4,1,7,target,old,1,1.3267946855999995
011,4,2,7,lure,new,1,0.8403966337999975
011,4,3,7,lure,old,0,1.2835948586000114
011,4,4,3,lure,new,1,2.4583901530000105
011,4,5,7,lure,new,1,1.298194800099992
011,4,6,5,lure,new,1,0.9274962849999895
011,4,7,3,lure,new,1,1.0710957096999891
011,4,8,7,target,old,1,1.057895762600026
011,4,9,7,lure,new,1,1.8579925578999905
011,4,10,3,target,old,1,1.17039531209997
011,4,11,5,target,old,1,0.855396573700034
011,4,12,5,lure,new,1,0.9835960602999876
011,4,13,5,lure,old,0,1.8302926687999843
011,4,14,5,target,old,1,0.8456966126000225
011,4,15,3,target,old,1,0.6445974180999201
011,4,16,5,target,old,1,0.6854972543000031
011,4,17,5,target,old,1,0.756496969900013
011,4,18,3,lure,new,1,0.9088963594999768
011,4,19,7,target,old,1,0.5620977486000811
011,4,20,3,lure,new,1,0.8988963995000177
011,4,21,7,lure,old,0,0.7770968874000346
011,4,22,5,lure,new,1,0.6860972518999233
011,4,23,3,lure,new,1,0.6360974522000333
011,4,24,5,lure,new,1,0.8139967396000429
011,4,25,3,target,old,1,1.0203959128000406
012,1,1,3,target,old,1,0.6774984492999998
012,1,2,7,lure,new,1,1.3848968301999989
012,1,3,5,target,old,1,0.6560984982999969
012,1,4,5,target,old,1,0.7351983172999894
012,1,5,3,target,old,1,0.9871977404999939
012,1,6,7,target,old,1,1.433596718699988
012,1,7,3,lure,new,1,0.8413980742000149
012,1,8,5,lure,new,1,0.7884981952999794
012,1,9,3,target,old,1,0.5362987725000039
012,1,10,7,target,old,1,0.7886981947999914
012,1,11,5,lure,new,1,1.301397021300005
012,1,12,5,target,old,1,0.47539891190001526
012,1,13,3,lure,new,1,1.578996385899984
012,1,14,5,lure,new,1,0.7892981933999863
012,1,15,7,lure,new,1,0.7900981916000092
012,1,16,7,lure,new,1,0.9743977697000332
012,1,17,5,target,old,1,0.6315985544
012,1,18,7,lure,new,1,0.7799982146999582
012,1,19,5,target,old,1,0.564898707100042
012,1,20,7,target,old,1,0.9402978477999682
012,1,21,7,lure,new,1,0.7247983410999836
012,1,22,3,target,old,1,0.9040979307000043
012,1,23,5,target,old,1,0.8358980868000003
012,1,24,3,target,old,1,0.759698261199901
012,1,25,3,target,old,1,0.7975981744000364
012,2,1,5,lure,new,1,0.8132018613000014
012,2,2,3,target,old,1,0.7883018042999979
012,2,3,7,target,old,1,0.8624019739000062
012,2,4,3,lure,new,1,0.5746013150999971
012,2,5,3,target,old,1,0.8520019500000018
012,2,6,3,target,old,1,0.5216011938000236
012,2,7,7,lure,new,1,1.3290030418999947
012,2,8,7,target,old,1,0.7037016106000067
012,2,9,5,target,old,1,0.5794013262000135
012,2,10,7,target,old,1,1.0315023609000207
012,2,11,7,lure,new,1,0.8411019250999914
012,2,12,3,target,old,1,0.49750113869998813
012,2,13,3,target,old,1,0.6616015143000027
012,2,14,7,lure,new,1,0.8344019097999649
012,2,15,5,target,old,1,0.8535019534999719
012,2,16,5,target,old,1,0.845401934999984
012,2,17,7,target,old,1,0.7546017271000096
012,2,18,5,lure,new,1,0.7159016385999735
012,2,19,5,target,old,1,0.7385016902999837
012,2,20,5,lure,new,1,0.6168014117000098
012,2,21,3,target,old,1,0.5011011468999982
012,2,22,3,lure,new,1,0.6182014148999997
012,2,23,3,lure,new,1,0.9707022216999803
012,2,24,5,lure,new,1,0.6363014564000196
012,2,25,7,lure,new,1,2.0378046642000527
012,3,1,3,target,old,1,0.5141984798999957
012,3,2,5,lure,new,1,0.6453980920000006
012,3,3,5,target,old,1,0.5059985040999919
012,3,4,7,target,old,1,0.4937985402000038
012,3,5,5,target,old,1,2.608092289399991
012,3,6,7,lure,new,1,0.856097469100007
012,3,7,3,target,old,1,0.4707986081999991
012,3,8,3,lure,new,1,0.6113981924999905
012,3,9,3,target,old,1,0.7172978794000073
012,3,10,7,target,old,1,0.6774979970000174
012,3,11,5,lure,new,1,0.7504977811999822
012,3,12,3,target,old,1,0.8076976121000143
012,3,13,3,lure,new,1,1.0181969898000034
012,3,14,7,target,old,1,0.8267975556000238
012,3,15,7,target,old,1,1.1802965104999998
012,3,16,3,lure,new,1,0.7549977680000097
012,3,17,5,target,old,1,0.8002976340000032
012,3,18,5,lure,new,1,2.1562936251000338
012,3,19,7,target,old,1,0.8513974828999835
012,3,20,5,lure,new,1,0.8134975950000012
012,3,21,7,target,old,1,0.9681971375999865
012,3,22,3,lure,new,1,0.6814979852999841
012,3,23,5,target,old,1,1.311096123899972
012,3,24,7,lure,new,1,0.8207975734000001
012,3,25,7,target,old,1,0.7738977121000516
014,1,1,7,lure,new,1,0.8829951953999995
014,1,2,7,target,old,1,0.7509660088999937
014,1,3,7,lure,new,1,0.8393855549999927
014,1,4,5,target,old,1,0.7241600831999904
014,1,5,3,lure,new,1,1.1535550055000101
014,1,6,5,target,old,1,0.9420082409000088
014,1,7,5,target,old,1,0.6592457332000095
014,1,8,3,target,old,1,0.6214373752999904
014,1,9,7,target,old,1,0.6849514156999987
014,1,10,5,target,old,1,4.3051516991000085
014,1,12,5,lure,new,1,0.81618042529999
014,1,13,3,lure,new,1,1.3543994042999543
014,1,14,3,target,old,1,0.6460428144999923
014,1,15,5,lure,new,1,0.9787163555999996
014,1,16,7,target,old,1,0.8880963230000134
014,1,17,5,lure,new,1,1.1800608648999855
014,1,18,3,target,old,1,0.6004327320000016
014,1,19,3,target,old,1,0.7618684189999954
014,1,20,3,target,old,1,0.5770275579999975
014,1,21,3,lure,new,1,1.4608229303000257
014,1,22,7,target,old,1,0.8520883630999947
014,1,23,7,lure,new,1,1.038029467299907
014,1,24,3,target,old,1,0.7158582480000177
014,1,25,7,lure,old,0,0.7090567443999589
014,2,1,5,lure,new,1,1.2379752016000012
014,2,2,3,target,new,0,0.875194555500002
014,2,4,7,target,old,1,0.6366415251999911
014,2,5,5,target,old,1,0.8564903975999982
014,2,6,7,target,old,1,0.6894532653000169
014,2,7,5,lure,old,0,1.6903757700000028
014,2,9,5,target,old,1,0.6861525314999994
014,2,10,3,lure,new,1,0.9599133884999844
014,2,11,3,lure,new,1,1.1935653291999984
014,2,12,5,lure,new,1,0.7015559556999733
014,2,13,7,target,old,1,0.7286619813999664
014,2,14,3,target,old,1,0.8760947555999792
014,2,15,7,lure,new,1,0.9633141444999751
014,2,16,7,lure,new,1,1.218570887999988
014,2,17,3,lure,new,1,0.8682930212999622
014,2,18,5,target,old,1,0.9996222158000023
014,2,19,3,lure,new,1,1.007223905700016
014,2,20,3,target,old,1,0.7204601580999679
014,2,21,7,target,old,1,0.7678706973999851
014,2,22,7,target,old,1,0.75376756229997
014,2,23,7,target,old,1,0.7185597356000244
014,2,24,7,target,old,1,0.577228317700019
014,2,25,5,lure,new,1,1.2509780921000129
014,3,1,7,lure,new,1,1.3694024923000043
014,3,2,5,target,old,1,0.8439864311999941
014,3,3,3,lure,new,1,0.669847965200006
014,3,4,3,lure,new,1,0.8637908059000097
014,3,5,7,lure,new,1,1.0244262893000098
014,3,6,5,lure,new,1,1.3356950466000228
014,3,7,5,lure,new,1,0.8109791402000042
014,3,8,7,target,old,1,0.9046998424999799
014,3,9,3,target,old,1,0.7664693082000156
014,3,10,5,target,old,1,0.9778159934000428
014,3,11,5,target,old,1,0.8171805100000142
014,3,12,3,lure,new,1,0.6760493350000161
014,3,13,7,lure,new,1,1.0989427494999973
014,3,14,7,target,old,1,0.8209813496000038
014,3,15,3,target,old,1,0.7762714734000156
014,3,16,7,target,old,1,0.654044474300008
014,3,17,7,lure,new,1,2.2129888353000524
014,3,18,5,lure,new,1,1.3653015864999816
014,3,19,5,lure,new,1,2.134471491300019
014,3,20,5,lure,new,1,1.358400061999987
014,3,21,3,lure,old,0,0.9474092767000002
014,3,23,5,target,old,1,0.6913527154999883
014,3,24,7,lure,new,1,2.091461990799985
014,3,25,3,target,old,1,0.6137355703000367
015,1,1,3,target,old,1,0.9086331694000016
015,1,2,5,lure,new,1,0.9391409982000027
015,1,3,5,target,old,1,0.9733497767000046
015,1,4,7,target,old,1,0.7574943847999975
015,1,5,5,target,old,1,0.7491922544000005
015,1,6,7,lure,new,1,1.2592231362000064
015,1,7,5,target,old,1,0.7340883785000187
015,1,8,7,lure,new,1,1.259023084900008
015,1,9,3,target,old,1,0.6923776749000012
015,1,10,7,lure,new,1,1.065973545400027
015,1,11,3,target,old,1,0.8469173322000074
015,1,12,5,lure,new,1,0.9452425639000239
015,1,13,3,lure,new,1,0.6674712834999923
015,1,14,7,target,new,0,1.44307031430003
015,1,15,7,lure,new,1,0.7843012638999767
015,1,16,7,target,old,1,1.6172150026000054
015,1,17,5,target,old,1,0.8155092723999928
015,1,18,3,target,old,1,0.8501181536000217
015,1,19,7,lure,new,1,0.9372405104999757
015,1,20,5,lure,new,1,0.876524929899972
015,1,21,3,target,old,1,0.8225110692000044
015,1,22,3,target,old,1,0.873924262599985
015,1,23,5,target,old,1,0.6801745433999713
015,1,24,5,target,old,1,0.639063993700006
015,1,25,3,lure,new,1,0.8029060382000353
015,2,1,7,target,old,1,1.012256624900001
015,2,2,3,lure,new,1,0.6433631039999952
015,2,3,5,target,old,1,0.9096306073999898
015,2,4,3,target,old,1,0.7132808293000039
015,2,5,3,lure,new,1,0.8903257133000011
015,2,6,5,lure,new,1,1.1185835807999922
015,2,7,5,target,old,1,0.9717463549000058
015,2,8,7,target,old,1,0.6902749969000013
015,2,9,5,target,old,1,0.8187075568000068
015,2,10,7,lure,new,1,1.238113883799997
015,2,11,3,target,old,1,0.6715702549000184
015,2,12,5,target,old,1,0.6931757323999932
015,2,13,7,lure,new,1,1.16699585409998
015,2,14,7,lure,new,1,1.0199585775999935
015,2,15,7,target,old,1,1.3842509321999614
015,2,16,3,lure,new,1,0.7843988590000208
015,2,17,3,target,old,1,0.8624186383999586
015,2,18,5,lure,new,1,1.0330618995000123
015,2,19,7,lure,new,1,1.0927770384000155
015,2,20,3,target,old,1,0.9688456195000299
015,2,21,3,target,old,1,0.7799977431999991
015,2,22,5,lure,new,1,0.9658448587999828
015,2,23,7,target,old,1,1.0312614429999485
015,2,24,5,lure,new,1,0.7579921644000933
015,2,25,3,target,old,1,0.8162069228999371
015,3,1,5,target,old,1,0.6706706342000004
015,3,2,5,lure,new,1,0.716982416999997
015,3,3,3,lure,new,1,0.7426889574000057
015,3,4,5,target,old,1,0.977548711099999
015,3,5,3,target,old,1,0.8535171545999987
015,3,6,7,target,old,1,0.6208579606999933
015,3,7,7,lure,new,1,0.8782234404000064
015,3,8,5,target,old,1,0.7803985516000012
015,3,9,7,target,old,1,0.7339867431999778
015,3,10,3,lure,new,1,0.6743715757999951
015,3,11,5,target,old,1,0.8159075858999927
015,3,12,5,lure,new,1,0.9151328310999816
015,3,13,3,target,old,1,0.7088803556999892
015,3,14,7,target,new,0,1.2259119004999661
015,3,15,3,lure,new,1,0.8618192667999551
015,3,16,5,lure,new,1,0.7872002821000024
015,3,17,5,lure,new,1,0.9406393204999972
015,3,18,7,target,old,1,0.8818243566000206
015,3,19,3,target,old,1,0.6896754695000027
015,3,20,7,target,old,1,0.7866001294000284
015,3,21,3,lure,new,1,0.9268358086000035
015,3,22,7,lure,new,1,1.0211598068000285
015,3,23,3,target,old,1,0.6436637629999495
015,3,24,7,target,new,0,1.368448165000018
016,1,1,3,target,old,1,0.9022299352000047
016,1,2,7,target,old,1,1.2910290214999947
016,1,3,5,target,old,1,0.8129071711999956
016,1,4,5,lure,new,1,1.256020099500006
016,1,5,3,lure,new,1,1.0138583840000024
016,1,6,3,target,old,1,0.8751230270000008
016,1,7,5,lure,new,1,1.031362845000018
016,1,8,5,target,old,1,1.054368708200002
016,1,9,3,target,old,1,0.8583187444000373
016,1,10,7,lure,old,0,1.541392827300001
016,1,11,7,lure,new,1,0.9547433184000056
016,1,12,3,target,old,1,1.1661972078999838
016,1,13,7,target,new,0,1.294829990300002
016,1,14,5,target,old,1,1.3667483187999778
016,1,15,7,lure,new,1,1.8155627001000312
016,1,16,7,lure,new,1,1.2111086537000233
016,1,17,7,lure,new,1,1.220511049899983
016,1,18,5,target,old,1,1.3460430419999057
016,1,19,5,target,old,1,1.0895776813000566
016,1,20,5,target,old,1,1.465373453600023
016,1,21,3,target,old,1,0.7880008237000311
016,1,22,3,lure,new,1,0.8098063808999996
016,1,23,7,target,old,1,1.3099338394999904
016,1,24,5,lure,new,1,0.8303116066999792
016,1,25,3,target,old,1,1.1142839776999836
016,2,1,7,target,old,1,1.2045075455000003
016,2,2,3,lure,new,1,0.8587192556999952
016,2,3,7,target,old,1,0.792202272099999
016,2,4,5,target,old,1,1.1265876502999959
016,2,5,3,lure,new,1,0.6727717779999978
016,2,6,7,lure,new,1,0.8043053622999992
016,2,7,5,lure,new,1,0.9529433138999934
016,2,8,3,target,old,1,0.9010300589000053
016,2,9,5,target,old,1,1.378051856299976
016,2,10,5,target,old,1,1.4856793367000023
016,2,11,3,target,old,1,0.8968289863000223
016,2,12,7,lure,new,1,1.0818762340999797
016,2,13,5,lure,new,1,1.0131586884999706
016,2,14,3,lure,new,1,1.003156134600033
016,2,15,3,target,old,1,0.9726483451000263
016,2,16,3,target,old,1,0.9002298545999565
016,2,17,7,target,old,1,0.9896526867999569
016,2,18,7,lure,new,1,0.8489167528999815
016,2,19,7,target,old,1,1.3537456501999259
016,2,20,5,lure,new,1,1.1848025142001006
016,2,21,3,target,old,1,1.0253618044000632
016,2,22,5,lure,new,1,1.0393653799000049
016,2,23,3,target,old,1,0.8375138414000958
016,2,24,5,target,old,1,0.9713480130999415
016,2,25,7,lure,new,1,1.1424917109999342
016,3,1,3,target,old,1,0.8069069495000001
016,3,2,5,target,old,1,0.8785253176999959
016,3,3,7,target,old,1,0.8449166980000058
016,3,4,7,target,old,1,1.52209037450001
016,3,5,5,lure,new,1,0.9395409665000045
016,3,6,7,target,old,1,0.8776250868000091
016,3,7,3,lure,new,1,0.7809002795000026
016,3,8,7,target,old,1,0.9388407870000037
016,3,9,7,target,old,1,0.9928546399999902
016,3,10,7,target,old,1,0.8778251380999791
016,3,11,3,target,old,1,0.8214106693000076
016,3,12,5,lure,old,0,1.7575507635999656
016,3,13,5,lure,new,1,1.2107105139999703
016,3,14,3,target,old,1,0.810807949999969
016,3,15,7,lure,new,1,1.0561708788999908
016,3,16,5,target,old,1,0.7240857081999934
016,3,17,7,target,old,1,1.3520467628999882
016,3,18,5,target,old,1,0.9002308844999902
016,3,19,3,target,old,1,0.9844524851000074
016,3,20,3,lure,new,1,1.024262695300024
016,3,21,5,lure,new,1,0.9427417873999957
016,3,22,7,lure,new,1,0.8454168263000383
016,3,23,3,lure,new,1,1.0647730851000006
016,3,24,5,target,old,1,0.8162093352999591
016,3,25,3,lure,new,1,0.8943293709999125
017,1,1,5,lure,new,1,0.8926264667999995
017,1,2,7,target,old,1,1.273723154199999
017,1,3,5,target,old,1,1.4360643414999998
017,1,4,5,target,old,1,0.8870250456999997
017,1,5,3,lure,new,1,1.067270775499992
017,1,6,7,lure,new,1,0.7989026882999894
017,1,7,5,target,old,1,0.9173327350000022
017,1,8,7,lure,new,1,0.7568920297999853
017,1,9,3,target,old,1,1.2213098564999996
017,1,10,5,target,old,1,0.9421390284999802
017,1,11,3,target,old,1,0.982149179400011
017,1,12,5,lure,new,1,1.0423644564999677
017,1,13,7,lure,new,1,0.9416389017000029
017,1,14,5,target,old,1,1.112382220699999
017,1,15,7,target,old,1,2.33179159499997
017,1,16,3,lure,new,1,0.8190077890999987
017,1,17,3,target,old,1,0.8801232946000255
017,1,18,7,lure,new,1,0.8484152500000164
017,1,19,7,lure,new,1,1.8712747581000144
017,1,20,5,lure,new,1,0.7198826401999554
017,1,21,3,target,old,1,0.865419564099966
017,1,22,5,target,old,1,1.0022542803000078
017,1,23,3,target,old,1,0.7221832239000037
017,1,24,3,target,old,1,0.9288356532999842
017,1,25,7,target,old,1,0.988950905099955
017,2,1,7,target,old,1,0.9142330379000008
017,2,2,7,lure,new,1,0.9518426245000029
017,2,3,5,lure,new,1,0.9929531036000014
017,2,4,5,target,old,1,0.9761488201999953
017,2,5,5,target,new,0,1.3537450694000057
017,2,6,5,lure,new,1,1.0388648063999995
017,2,7,3,target,old,1,0.9403396925000038
017,2,8,7,lure,new,1,1.8108615884000017
017,2,9,3,target,old,1,0.7486908412000162
017,2,10,5,lure,new,1,1.2820267884000032
017,2,11,7,lure,new,1,1.2336144481000133
017,2,12,7,lure,new,1,0.795902875500019
017,2,13,3,lure,new,1,0.7165826568000284
017,2,14,3,target,old,1,1.289128598599973
017,2,15,3,target,old,1,0.6463647583000238
017,2,16,5,target,old,1,1.0525682995000238
017,2,17,7,target,old,1,0.983850783399987
017,2,18,5,lure,new,1,0.8325122072999989
017,2,19,5,target,old,1,0.808406062500012
017,2,20,3,target,old,1,0.7633945892000042
017,2,21,3,lure,new,1,0.9468413496999801
017,2,22,7,target,new,0,0.8423147059000371
017,2,23,3,lure,new,1,0.753992192499993
017,2,24,3,target,old,1,0.9173338281999577
017,2,25,7,target,old,1,1.2930295931000728
017,3,1,7,target,old,1,0.9788478287000011
017,3,2,3,lure,new,1,0.9610433208999964
017,3,4,3,target,old,1,0.9459394968000083
017,3,6,7,target,old,1,0.9163320006999953
017,3,7,3,target,old,1,1.0050544639000094
017,3,8,7,lure,new,1,0.9053292149000072
017,3,9,7,target,old,1,1.0294606430999806
017,3,10,7,lure,new,1,0.8102051309999752
017,3,11,7,target,old,1,0.8940263533000063
017,3,12,7,target,old,1,1.3546429740999884
017,3,13,5,target,old,1,0.9723461825999777
017,3,14,5,lure,new,1,0.8430134376000069
017,3,15,5,target,old,1,0.7495897841999977
017,3,16,5,lure,new,1,1.7502431336999962
017,3,17,3,lure,new,1,1.1683958191999864
017,3,18,5,lure,new,1,0.928535090299988
017,3,19,3,lure,new,1,0.8145062199999984
017,3,20,3,lure,new,1,0.7257837569000003
017,3,21,5,lure,new,1,0.7120802873999992
017,3,22,3,target,old,1,1.0290605417000052
017,3,23,7,target,old,1,1.954194771099992
017,3,24,7,target,old,1,1.0221587943999566
017,3,25,5,target,old,1,0.8058040166999376
018,1,1,3,target,old,1,1.4230636202999989
018,1,2,3,lure,new,1,1.0183602107999974
018,1,3,7,lure,new,1,0.9855518275999913
018,1,4,7,target,old,1,1.6851305835999995
018,1,5,3,target,old,1,0.90543135530001
018,1,6,7,lure,new,1,1.0612711754000088
018,1,7,7,lure,new,1,1.5037842460999968
018,1,8,7,target,old,1,1.2147103820000211
018,1,9,5,target,old,1,1.2333151360000159
018,1,10,3,target,old,1,1.3810528858000453
018,1,11,5,lure,new,1,0.9395400706999908
018,1,12,3,lure,new,1,0.667970679400014
018,1,13,5,target,old,1,1.4906808979000061
018,1,14,5,target,old,1,1.1559953792000215
018,1,15,3,target,old,1,1.0365648624000414
018,1,16,7,target,old,1,1.0269624087999887
018,1,17,7,lure,old,0,1.0360647346000178
018,1,18,5,lure,new,1,1.0732742423999753
018,1,19,7,lure,new,1,0.9310378983000192
018,1,20,5,target,old,1,1.1056825233999916
018,1,21,3,target,old,1,0.8713226398000415
018,1,22,3,target,old,1,0.8989296940000031
018,1,23,5,target,old,1,0.8661213108000538
018,1,24,5,lure,new,1,1.0891783061999831
018,1,25,5,target,old,1,1.0368649391000417
018,2,1,5,target,old,1,1.1988019749000003
018,2,2,5,target,old,1,0.9161307708999971
018,2,3,3,target,old,1,0.6344598187999964
018,2,4,3,target,old,1,0.8140050457000001
018,2,5,3,target,old,1,0.752789625700018
018,2,6,5,lure,new,1,1.0055532961999916
018,2,7,5,target,old,1,1.071269849999993
018,2,8,3,target,old,1,0.7008765488999984
018,2,9,3,lure,new,1,0.8540151240999876
018,2,10,7,lure,new,1,1.1384867816999815
018,2,11,3,target,old,1,0.6586659161999933
018,2,12,5,lure,new,1,0.7090786150000099
018,2,13,3,target,old,1,1.0275588393000135
018,2,14,5,lure,new,1,0.7118793203999871
018,2,15,5,target,old,1,0.8931249757999922
018,2,16,7,target,old,1,0.7768956980000326
018,2,17,7,lure,new,1,1.009654329199975
018,2,18,7,target,old,1,0.8697190798999941
018,2,19,7,lure,new,1,1.7353371266999602
018,2,20,3,lure,new,1,0.7566906083000049
018,2,21,3,lure,new,1,0.9438377501999753
018,2,22,7,target,new,0,1.0053532457000074
018,2,23,7,lure,new,1,0.7556903564000095
018,2,24,5,lure,new,1,0.7313842337000551
018,2,25,7,target,old,1,0.9848480805999316
018,3,1,7,lure,new,1,1.0669695803000003
018,3,2,3,lure,new,1,0.8046032909000047
018,3,3,7,target,old,1,0.8778217904000059
018,3,4,5,target,old,1,0.8564163819999919
018,3,5,7,target,old,1,0.8030028865999981
018,3,6,3,target,old,1,0.9331357660000208
018,3,7,7,target,old,1,0.7201819610999962
018,3,8,7,target,old,1,1.0800728909999862
018,3,9,7,target,old,1,0.7666937127999915
018,3,10,5,lure,new,1,0.8566164325999921
018,3,11,5,target,old,1,0.8196070817999725
018,3,12,3,lure,old,0,1.4446650088000297
018,3,13,5,target,old,1,1.0248589406999713
018,3,14,3,lure,new,1,0.8326103672000045
018,3,15,3,target,old,1,1.1724962426999923
018,3,16,5,lure,new,1,0.7058783472000414
018,3,17,3,target,old,1,1.1777975821000268
018,3,18,5,target,old,1,1.0310605075000012
018,3,19,7,target,old,1,0.8721203498000136
018,3,20,7,target,old,1,1.5102815874999465
018,3,21,3,lure,new,1,1.2001032178999935
018,3,22,7,lure,new,1,0.9295348562000072
018,3,23,5,lure,new,1,0.8947260613000481
018,3,24,5,lure,new,1,0.9821481494000182
018,3,25,3,target,old,1,0.8710200717999896
019,1,1,7,target,old,1,1.1995039240000018
019,1,2,5,lure,new,1,1.170796650299998
019,1,3,7,target,old,1,1.2326123128000006
019,1,4,3,target,old,1,1.0422640833999992
019,1,5,5,target,old,1,1.2604193584
019,1,6,5,target,old,1,1.2804244272000176
019,1,7,3,target,old,1,1.15929373580002
019,1,8,3,target,old,1,0.8203078452000057
019,1,9,7,lure,old,0,1.2736227038000152
019,1,10,5,target,old,1,1.5329884206000202
019,1,11,5,lure,new,1,1.5661968347000084
019,1,12,7,lure,new,1,1.3100319289999902
019,1,13,3,target,old,1,1.2183086887000059
019,1,14,7,lure,new,1,0.808304803999988
019,1,15,7,lure,new,1,1.4574692859000038
019,1,16,3,lure,new,1,0.699177153800008
019,1,17,5,lure,new,1,1.043764463499997
019,1,18,7,lure,new,1,0.9685454049999862
019,1,19,5,target,old,1,1.1596938371999954
019,1,20,3,lure,new,1,0.9999533630000315
019,1,21,3,target,new,0,1.342440140400015
019,1,22,5,target,old,1,2.5386432279999553
019,1,23,5,target,old,1,1.203805013799979
019,1,24,7,target,old,1,1.1393886922999172
019,1,25,3,target,old,1,0.9798482687999694
019,2,1,3,target,old,1,0.8843247398999985
019,2,2,7,lure,new,1,1.0998795203999947
019,2,3,7,target,old,1,1.1148833334000017
019,2,4,5,lure,new,1,1.2139084994999934
019,2,5,5,target,old,1,1.1340882140999895
019,2,6,5,target,old,1,1.0663710046000006
019,2,7,3,lure,new,1,0.9606441354999902
019,2,8,3,target,old,1,0.9969533629999887
019,2,9,3,target,old,1,1.2360141171999999
019,2,10,7,target,old,1,1.0605695303000005
019,2,11,5,target,old,1,0.9790488127999879
019,2,12,3,lure,new,1,1.0195591078999655
019,2,13,5,lure,new,1,1.0509670899000412
019,2,14,5,lure,new,1,1.5314892085000338
019,2,15,7,lure,new,1,1.9813035230999958
019,2,16,3,lure,new,1,1.0330625396999835
019,2,17,7,lure,new,1,0.9122318321000193
019,2,18,3,target,old,1,1.2954292168999473
019,2,19,7,target,old,1,1.162995560499951
019,2,20,3,target,old,1,1.2894276917000411
019,2,21,7,target,old,1,1.1430905019000193
019,2,22,5,lure,new,1,1.0773738009000908
019,2,23,5,target,old,1,1.2319130749999658
019,2,24,7,lure,new,1,1.1933032629000309
019,2,25,3,target,old,1,1.3493429183999979
019,3,1,3,lure,new,1,1.7602491067000017
019,3,2,5,target,old,1,1.1439918760000012
019,3,3,7,target,old,1,1.3578464383999886
019,3,4,5,lure,new,1,1.156495066000005
019,3,5,3,target,old,1,1.2684236231999932
019,3,6,3,lure,new,1,0.8304118696999865
019,3,7,7,target,old,1,1.561598423300012
019,3,8,7,lure,new,1,1.1680980262999867
019,3,9,7,target,old,1,0.9682470367000064
019,3,10,3,target,old,1,1.0178596948999825
019,3,11,3,target,old,1,1.017259541699957
019,3,12,7,target,new,0,2.2573759425999924
019,3,13,7,target,old,1,1.5423935233999941
019,3,14,3,target,old,1,1.5149865308999892
019,3,15,3,lure,new,1,1.093879090200005
019,3,16,7,lure,old,0,2.689186113900007
019,3,17,5,target,new,0,1.8140628365999873
019,3,18,5,lure,new,1,1.2747252309999908
019,3,19,5,target,old,1,1.093278937100024
019,3,20,5,lure,new,1,1.2827272725999137
019,3,21,5,target,old,1,1.295530539299989
019,3,22,5,lure,new,1,1.0262618384999769
019,3,23,7,target,old,1,2.134344552699986
019,3,24,3,lure,new,1,0.914233255699969
019,3,25,7,target,old,1,1.0603705409999975
020,1,1,5,target,old,1,1.270723119800003
020,1,2,5,target,old,1,1.3227363456999939
020,1,3,3,lure,new,1,1.0073561508000068
020,1,4,7,target,old,1,1.7414428145000045
020,1,5,7,lure,new,1,0.9583436877999958
020,1,6,3,lure,new,1,1.0053556420999996
020,1,7,7,lure,new,1,0.9870509875000266
020,1,8,7,lure,new,1,1.3958549383999923
020,1,9,3,target,old,1,0.962344705199996
020,1,10,7,lure,old,0,1.0706722508000155
020,1,11,3,target,old,1,1.097879168999981
020,1,12,7,lure,new,1,1.1165839253000058
020,1,13,3,target,old,1,1.0662711316999776
020,1,14,3,target,old,1,1.0474663500999668
020,1,15,5,target,old,1,1.2111079608999944
020,1,16,5,lure,new,1,1.1511927256000263
020,1,17,5,lure,new,1,1.0948784060000207
020,1,18,3,target,old,1,1.48357724440001
020,1,19,7,target,old,1,1.3615462143999935
020,1,20,5,target,old,1,0.8388132937000137
020,1,21,3,target,old,1,1.180700228800049
020,1,22,5,lure,new,1,1.1760990587999913
020,1,23,7,target,old,1,1.9249894867999728
020,1,24,5,target,old,1,1.3652471553999703
020,1,25,5,target,old,1,1.3414411019999761
020,2,1,3,target,old,1,1.1645950234999987
020,2,2,7,target,old,1,0.961143483699999
020,2,3,5,target,old,1,1.1345874216999903
020,2,4,7,lure,new,1,1.5221856108000082
020,2,5,3,target,old,1,0.6435630319000012
020,2,6,5,lure,new,1,1.012656533300003
020,2,7,3,lure,new,1,0.9200330692999898
020,2,8,3,target,old,1,1.07357196480001
020,2,9,7,lure,new,1,1.7366399379000086
020,2,10,3,lure,new,1,1.1042797438999798
020,2,11,3,lure,new,1,0.9653445479000311
020,2,12,7,lure,new,1,1.022959143200012
020,2,13,7,target,old,1,0.8937264051000398
020,2,14,5,lure,new,1,1.6143089481000175
020,2,15,5,lure,new,1,1.1648950994999723
020,2,16,5,target,old,1,1.176398013499977
020,2,17,3,target,old,1,0.8284098586000255
020,2,18,5,target,old,1,0.9252343869000015
020,2,19,7,target,old,1,0.9791480446999685
020,2,20,5,target,old,1,0.765894021700035
020,2,21,5,lure,new,1,1.0836745240000027
020,2,22,7,lure,new,1,1.354943243799994
020,2,23,3,target,old,1,0.9267347669999708
020,2,24,3,target,old,1,0.7355863440000121
020,2,25,7,target,old,1,0.7536909302999675
020,3,1,3,target,old,1,1.0022526079999992
020,3,2,7,target,old,1,1.0448633476999944
020,3,3,3,target,old,1,1.0385617593999967
020,3,4,7,target,old,1,0.8614171117999945
020,3,5,5,target,old,1,0.7148801785999979
020,3,6,7,target,old,1,1.2244086002000074
020,3,7,7,target,old,1,1.078071717499995
020,3,8,3,lure,new,1,0.8073034730000188
020,3,9,3,lure,new,1,1.0500646584999913
020,3,10,5,target,old,1,0.7139799516999972
020,3,11,5,lure,new,1,1.0747708855000155
020,3,12,5,target,new,0,1.9062804594000227
020,3,13,3,lure,new,1,1.5611934835999932
020,3,14,3,lure,new,1,1.1070790284999816
020,3,15,3,target,old,1,1.2494149029000141
020,3,16,7,target,old,1,1.1498898185000144
020,3,17,7,target,old,1,0.9454382885000427
020,3,18,5,lure,new,1,0.8770210445999851
020,3,19,5,lure,new,1,1.8094560558000126
020,3,20,7,lure,new,1,1.4768722312000477
020,3,21,7,lure,new,1,1.6425139795999826
020,3,22,5,lure,new,1,1.32633428959997
020,3,23,5,target,old,1,1.140987574799965
020,3,24,3,target,old,1,0.839511590699999
020,3,25,7,target,old,1,0.8334100528999215
021,1,1,7,lure,new,1,0.8883271541999989
021,1,2,3,target,old,1,0.8476167442000033
021,1,3,7,lure,new,1,0.7371885065000043
021,1,4,3,lure,new,1,0.7952033414000113
021,1,5,7,target,old,1,0.7663959750999965
021,1,6,3,target,old,1,0.9086323463999975
021,1,7,5,target,old,1,0.8297121657000162
021,1,8,7,lure,new,1,0.755093084900011
021,1,9,3,target,old,1,0.5338365073000091
021,1,10,5,lure,new,1,0.7009792474000278
021,1,11,3,lure,new,1,0.8051058736999721
021,1,12,5,target,old,1,1.078975904999993
021,1,13,7,lure,new,1,0.6207587343000114
021,1,14,5,lure,new,1,0.6980785055999945
021,1,15,7,target,old,1,0.8626205807000247
021,1,16,5,target,old,1,0.5374374282000076
021,1,17,3,target,old,1,0.6133568415000354
021,1,18,7,lure,new,1,0.8012048761000301
021,1,19,5,target,old,1,0.6875758200000064
021,1,20,5,target,old,1,1.0446671319000416
021,1,21,7,target,old,1,0.6021539769000128
021,1,22,5,target,old,1,0.6845750526999836
021,1,23,5,lure,new,1,0.7380887366999787
021,1,24,3,target,old,1,0.6328618291000794
021,1,25,3,target,old,1,0.6637697326000307
021,2,1,5,target,old,1,0.6822749522999985
021,2,2,3,target,old,1,1.7208412666000044
021,2,3,3,lure,new,1,0.5450397617999982
021,2,4,7,lure,new,1,0.5516414546000021
021,2,5,7,target,old,1,0.7022800821000033
021,2,6,7,target,old,1,0.7686971131000178
021,2,7,3,target,old,1,0.3204821795999919
021,2,8,7,lure,new,1,1.1567966315000149
021,2,9,3,target,old,1,0.7077814927999952
021,2,10,5,target,old,1,0.699779440899988
021,2,11,5,lure,new,1,0.6572685401000058
021,2,12,3,target,old,1,0.44721467699997675
021,2,13,7,lure,new,1,0.6540677191999862
021,2,14,3,lure,new,1,0.8412157085999752
021,2,15,3,target,old,1,0.5739471744000184
021,2,16,3,lure,new,1,0.6043549716999905
021,2,17,5,lure,new,1,0.622459614200011
021,2,18,5,lure,new,1,0.6186586394999267
021,2,19,3,target,old,1,0.6329623073999073
021,2,20,7,target,old,1,0.6449653852999973
021,2,21,5,lure,new,1,0.5758476616999815
021,2,22,7,target,old,1,0.9345396392000112
021,2,23,7,lure,old,0,0.6091562028999533
021,2,24,5,target,old,1,0.7760990112000172
021,2,25,5,target,old,1,0.9129340990000401
021,3,1,5,target,old,1,0.8197097643000006
021,3,2,3,lure,new,1,0.7222848331000051
021,3,3,3,target,old,1,0.5925516343000083
021,3,4,3,lure,new,1,0.5543418564000007
021,3,5,3,lure,new,1,0.5108307218999926
021,3,6,7,target,old,1,0.8296122982999918
021,3,7,5,target,old,1,0.5186327185000152
021,3,8,3,target,old,1,0.4162065075000214
021,3,9,7,target,old,1,0.4623183074999986
021,3,10,5,lure,new,1,0.7876015478000227
021,3,11,7,target,old,1,0.6466654822000351
021,3,12,5,lure,new,1,0.8133081260999688
021,3,13,7,target,old,1,0.9689479543999937
021,3,14,5,target,old,1,0.6429645350999635
021,3,15,7,lure,new,1,0.9054317005999906
021,3,16,5,target,old,1,0.5235339727000223
021,3,17,7,target,old,1,0.7589942271000041
021,3,18,7,target,old,1,0.6285608490999834
021,3,19,5,lure,new,1,0.5192328720999626
021,3,20,3,target,old,1,0.5979530165999449
021,3,21,5,lure,new,1,0.6248599020999563
021,3,22,3,target,old,1,0.5163321298000483
021,3,23,7,lure,new,1,0.7632953276998933
021,3,24,3,lure,new,1,0.6961781525000106
021,3,25,7,target,old,1,0.5751471805999699
022,1,1,7,target,old,1,1.452198017199997
022,1,2,5,lure,new,1,1.2707732786000037
022,1,3,3,target,old,1,1.1867618230999994
022,1,4,5,lure,new,1,1.4349956714999905
022,1,5,3,lure,new,1,1.1336545815999841
022,1,6,5,lure,new,1,1.275373905900011
022,1,7,5,target,old,1,1.154757459099983
022,1,8,7,lure,new,1,1.1235532042000216
022,1,9,3,target,old,1,1.1330544996999947
022,1,10,5,target,old,1,1.2309678508000275
022,1,11,3,target,old,1,1.5106059815000208
022,1,12,3,target,old,1,0.8867209103999585
022,1,13,3,target,old,1,1.549011218299995
022,1,14,5,target,old,1,1.3479838068000163
022,1,15,5,target,old,1,0.8180115413999829
022,1,16,3,lure,new,1,1.3827885526999921
022,1,17,7,lure,new,1,2.4050279419000162
022,1,18,7,target,new,0,1.4871027765999543
022,1,19,5,target,new,0,2.1505932480999945
022,1,20,7,lure,new,1,1.5329090226999824
022,1,21,7,lure,new,1,1.1641587410000511
022,2,1,5,lure,new,1,1.8432808594
022,2,2,7,lure,new,1,1.5078661458000013
022,2,3,7,lure,new,1,1.4149620702999925
022,2,4,5,target,old,1,1.2784560821999946
022,2,5,7,target,old,1,1.6940743140999928
022,2,6,5,target,old,1,1.0421457159000056
022,2,7,5,lure,new,1,1.985887115100013
022,2,8,3,lure,new,1,1.356159490799996
022,2,9,3,target,old,1,1.3846607410999923
022,2,10,3,lure,new,1,1.4339629036999781
022,2,11,3,target,old,1,1.5011658518000104
022,2,12,7,target,old,1,1.9343848558000332
022,2,13,5,target,old,1,1.7580771217999995
022,3,1,7,target,old,1,1.2229618110999994
022,3,2,7,target,old,1,0.9438477041000013
022,3,3,5,lure,new,1,2.5454286515000035
022,3,4,7,target,new,0,1.6337825748999961
022,3,5,7,lure,new,1,1.1654589047999764
022,3,6,5,target,old,1,1.5002758271999994
022,3,7,3,lure,new,1,2.571029945499987
022,3,8,7,target,old,1,1.4857750943000099
022,3,9,7,target,old,1,1.2511632365000196
022,3,10,3,target,old,1,0.9723491446999901
022,3,11,5,lure,new,1,1.7055862041000296
022,3,12,3,lure,new,1,1.3987706968999873
022,3,13,5,target,old,1,1.1611586874000182
022,3,14,3,target,old,1,2.0148018323999963
022,3,15,7,target,old,1,1.9961008872999741
022,3,16,3,target,old,1,1.1085560289000114
022,3,17,5,lure,new,1,2.3273176276999834
022,3,18,7,target,new,0,2.510126867300073
022,3,19,5,target,old,1,1.2786646265000172
022,3,20,3,lure,new,1,2.0105016150999973
022,3,21,5,lure,new,1,1.9425981832000616
022,3,22,3,target,old,1,1.1123562208999829
022,3,23,7,lure,new,1,2.7999415151999756
022,3,24,3,lure,new,1,1.5621789560000252
022,3,25,5,target,old,1,0.9606485532999613
022,4,1,7,lure,new,1,1.7896402780000003
022,4,2,7,lure,new,1,1.8515416712000103
022,4,3,3,target,old,1,1.103524836099993
022,4,4,7,target,old,1,1.3536304650999966
022,4,5,3,target,old,1,1.406131646700004
022,4,6,3,target,old,1,0.787017712800008
022,4,7,5,lure,new,1,1.4254320810999843
022,4,8,5,target,old,1,0.9413211855000156
022,4,9,5,lure,new,1,1.6792377932999898
022,4,10,7,lure,new,1,3.131470477499988
022,4,11,5,target,old,1,1.1121250297999836
022,4,12,5,lure,new,1,1.2947291394999638
022,4,13,5,target,old,1,0.9587215771999809
022,4,14,5,lure,new,1,3.553079966299947
022,4,15,5,target,old,1,1.9926448469000206
022,4,16,3,lure,new,1,1.3176296547999868
022,4,17,3,lure,new,1,3.7499843978999934
022,4,18,7,lure,new,1,1.2935291123999946
022,4,19,7,lure,new,1,1.1659262406000153
022,4,20,7,target,new,0,1.5783355223999251
022,4,21,7,target,old,1,2.494556143000068
022,4,22,5,lure,new,1,2.0624464178999915
022,4,23,3,lure,new,1,1.1930268505000186
022,4,24,3,lure,new,1,0.9464213003000168
022,4,25,3,lure,new,1,1.4473325740000291
022,5,1,5,lure,new,1,2.3828929418000016
022,5,2,3,lure,new,1,1.2437485108999908
022,5,3,5,lure,new,1,1.6435641051999994
022,5,4,5,target,old,1,1.0703417472999917
022,5,5,7,lure,new,1,1.6654649593999977
022,5,6,3,target,old,1,1.4803577394999934
022,5,7,3,target,old,1,1.1795460066999794
022,5,8,5,target,old,1,1.0396405498999854
022,5,9,7,target,old,1,0.8774342231999981
022,5,10,7,lure,new,1,2.7895088013000304
022,5,11,3,target,old,1,1.0560411895999664
022,5,12,3,target,old,1,1.2152473991999955
022,5,13,7,lure,new,1,1.2195475670000064
022,5,14,7,target,old,1,2.8984130489999984
022,5,15,5,target,old,1,1.1319441499999812
022,5,16,3,target,old,1,1.232948089600029
022,5,17,7,lure,new,1,1.9531761811999786
022,5,18,7,lure,old,0,9.242960510200021
022,5,19,7,target,old,1,1.3422523529000046
022,5,20,5,lure,new,1,2.2731886628999973
022,5,21,5,target,old,1,3.4141331639999635
022,5,22,3,lure,new,1,1.8017702757999814
022,5,23,7,target,old,1,1.3053509135999093
022,5,24,3,target,old,1,0.7099276897999971
022,5,25,3,target,old,1,2.630602603400007
022,6,1,3,lure,new,1,1.4376600499000034
022,6,2,7,lure,new,1,1.9306806429000005
022,6,3,5,lure,new,1,0.9929414743999985
022,6,4,5,lure,new,1,1.85877763969998
022,6,5,5,target,new,0,1.6946707849999996
022,6,7,3,lure,new,1,1.1215468460999887
022,6,8,7,target,old,1,1.3567566707000083
022,6,9,3,target,old,1,1.1262470423999957
022,6,10,3,target,old,1,1.091245580500015
022,6,11,7,lure,new,1,0.9572399831000098
022,6,12,3,target,old,1,0.8201342564000242
022,6,13,3,target,old,1,0.8430352129000198
022,6,14,3,target,old,1,0.995741591299975
022,6,15,3,target,old,1,2.0841870547999974
022,6,16,7,target,old,1,1.435759970499987
022,6,17,7,lure,new,1,1.7333724015999792
022,6,18,5,target,old,1,0.7551315412000008
022,6,19,7,lure,new,1,1.389058019800018
022,6,20,7,lure,new,1,1.6086671927999987
022,6,21,5,lure,new,1,2.3501981658999966
022,6,22,7,target,old,1,1.2144507266000346
022,6,23,5,target,old,1,0.9990417290999858
022,6,24,5,target,old,1,1.188449640500039
022,6,25,5,target,old,1,1.2634527733999903
023,1,1,7,lure,new,1,2.4369593380999994
023,1,2,5,lure,old,0,3.3828599995999937
023,1,3,5,target,old,1,5.011933363599994
023,1,4,3,target,old,1,2.0317162127000046
023,1,5,3,target,old,1,1.3979487679000044
023,1,6,5,target,old,1,1.102617339099993
023,1,7,3,target,old,1,1.0967167112000027
023,1,8,3,lure,new,1,1.7706884344000002
023,1,9,7,target,old,1,2.2547399466000115
023,1,10,5,lure,new,1,2.1419279412999686
023,1,11,3,lure,new,1,1.7286839643000462
023,1,12,3,target,old,1,1.2758357728000078
023,1,13,3,target,old,1,0.7339781090000201
023,1,14,5,target,old,1,0.6564698606999855
023,1,15,3,target,old,1,0.7670816318999982
023,1,16,5,lure,new,1,1.1213193294000234
023,1,17,7,lure,old,0,1.0462113364999936
023,1,18,7,target,old,1,0.6863730430000032
023,1,19,7,lure,new,1,1.2987382100999412
023,1,20,5,target,old,1,0.6921736602999999
023,1,21,5,target,old,1,0.8938951272000395
023,1,22,7,target,old,1,0.8558910827999853
023,1,23,7,lure,new,1,1.9311055058000193
023,1,24,7,lure,new,1,1.392848225200055
023,1,25,5,target,old,1,1.2542334739999887
023,2,1,3,target,old,1,0.702579054800001
023,2,2,3,lure,new,1,0.7251815981000007
023,2,3,7,target,old,1,1.162030752800007
023,2,4,5,lure,new,1,1.0635196682000014
023,2,5,5,target,old,1,0.6780762978000041
023,2,6,3,target,old,1,0.6263704798000163
023,2,7,5,target,old,1,0.7003788072999839
023,2,8,3,lure,new,1,0.9346051626000076
023,2,9,5,target,old,1,1.0916228304000128
023,2,10,5,lure,new,1,2.322461325500001
023,2,11,7,lure,new,1,2.8426198541000076
023,2,12,7,lure,new,1,3.5954045582000163
023,2,13,5,target,old,1,1.3601530455999864
023,2,14,3,target,old,1,0.8646972964999691
023,2,15,3,target,old,1,0.8575964975000261
023,2,16,7,target,old,1,0.9563076045999992
023,2,17,7,lure,new,1,2.9143279227999983
023,2,18,7,target,new,0,4.347689205999984
023,2,19,3,target,old,1,0.7637859418999824
023,2,20,7,target,old,1,1.0925229317000458
023,2,21,5,lure,new,1,1.4311610355999846
023,2,22,5,lure,new,1,1.3624533045000362
023,2,23,3,target,old,1,0.7783875848999742
023,2,24,7,lure,new,1,2.482179297099947
023,2,25,3,lure,new,1,0.7474841076000303
023,3,1,3,lure,new,1,0.8623156094000031
023,3,2,7,target,old,1,1.244766884199997
023,3,3,5,lure,new,1,1.8891532762000054
023,3,4,5,target,old,1,0.7901059284000098
023,3,5,3,target,old,1,0.588278869699991
023,3,6,7,target,old,1,1.153054588499998
023,3,7,3,lure,new,1,0.7672028577999868
023,3,8,7,lure,new,1,2.963497311999987
023,3,9,3,target,new,0,0.8658160788000089
023,3,10,7,target,old,1,1.2322652080999887
023,3,11,5,lure,new,1,0.725597279800013
023,3,12,7,lure,new,1,6.097417472400025
023,3,13,5,lure,new,1,0.7553012621999642
023,3,14,3,lure,new,1,0.61948305330003
023,3,15,5,target,old,1,1.012735776099987
023,3,16,3,target,old,1,0.8681163872000184
023,3,17,5,lure,new,1,1.7196305484999925
023,3,18,7,target,old,1,1.9090559444999826
023,3,19,3,target,old,1,0.6889923722999356
023,3,20,5,target,old,1,0.8133090392000213
023,3,21,7,target,old,1,0.8168095085000004
023,3,22,3,lure,new,1,0.6931929354000204
023,3,23,7,target,old,1,0.5641756382000267
023,3,24,5,target,old,1,0.5074680356000272
023,3,25,7,target,old,1,0.7684030187000417
023,4,1,5,target,old,1,0.8477640276000002
023,4,2,5,target,old,1,1.0900823288000012
023,4,3,3,target,old,1,0.7435561573000058
023,4,4,5,lure,new,1,1.7888351022999984
023,4,5,7,target,old,1,1.9650484109000104
023,4,6,3,lure,new,1,2.112559551700002
023,4,7,5,lure,new,1,1.4546098598000015
023,4,8,7,target,old,1,2.248769839000005
023,4,9,7,lure,old,0,4.172115100200017
023,4,10,7,target,old,1,1.2106914377999942
023,4,11,5,target,old,1,0.8489641182000014
023,4,12,5,lure,new,1,1.2983980619000022
023,4,13,7,lure,new,1,3.8953942008000126
023,4,14,5,target,old,1,1.4379085985000302
023,4,15,3,target,old,1,0.9185693751999793
023,4,16,3,lure,new,1,0.61384636089997
023,4,17,7,lure,new,1,0.6971526526999696
023,4,18,5,lure,new,1,1.7140294526000162
023,4,19,7,lure,new,1,2.590195625299998
023,4,20,3,target,old,1,0.974373589899983
023,4,21,3,lure,new,1,0.7333553869000298
023,4,22,7,lure,new,1,2.668401531900031
023,4,23,3,lure,new,1,0.527139812400037
023,4,24,5,lure,new,1,1.2815967929999488
023,4,25,3,lure,new,1,0.5752434454000195
023,5,1,5,target,old,1,0.6363861082
023,5,2,3,lure,new,1,0.7413003038999975
023,5,3,7,lure,new,1,3.221635913400007
023,5,4,3,target,old,1,0.49216659409999863
023,5,5,3,target,old,1,0.49846744659998876
023,5,6,7,lure,new,1,3.842919978099985
023,5,7,3,target,old,1,0.5047682992000091
023,5,8,7,target,old,1,1.1323532166000234
023,5,9,5,target,old,1,0.5890797073000158
023,5,10,5,lure,new,1,2.6967648940999993
023,5,11,3,target,old,1,1.1842602400000146
023,5,12,5,lure,new,1,1.279773163599998
023,5,13,7,target,old,1,1.2280661673000282
023,5,14,7,lure,new,1,1.9784677026999589
023,5,15,5,target,old,1,0.4892662016999907
023,5,16,5,target,old,1,0.7886067048000314
023,5,17,3,target,old,1,0.7838060552999764
023,5,18,5,lure,new,1,1.4003894840000157
023,5,19,7,lure,new,1,2.9927049370999725
023,5,20,7,lure,new,1,2.1660930899000164
023,5,21,3,lure,new,1,0.6686904792999258
023,5,22,7,target,old,1,2.3796219820000033
023,5,23,3,target,old,1,1.05474271519995
023,5,24,7,target,old,1,0.6030816017999996
023,5,25,3,target,old,1,0.8074092489999884
024,1,1,5,target,new,0,1.4638718150999992
024,1,2,5,lure,new,1,0.6229582277999981
024,1,3,3,target,new,0,1.021659495700007
024,1,4,7,target,new,0,0.6177569066999951
024,1,5,7,lure,new,1,0.6412628770999902
024,1,6,7,lure,new,1,0.5134304083999837
024,1,7,3,lure,new,1,0.6002524607000055
024,1,8,5,target,new,0,0.5572415362000243
024,1,9,7,target,new,0,0.576846515699998
024,1,10,7,target,new,0,0.6211577705999787
024,1,11,5,target,new,0,0.5996523082000067
024,1,12,7,lure,new,1,0.5629429842999798
024,1,13,3,target,new,0,1.1695970709999983
024,1,14,3,lure,new,1,0.7864997664999578
024,1,15,5,target,new,0,0.9325368591000256
024,1,16,5,lure,new,1,0.9353375704000086
024,1,17,5,target,new,0,1.4248619068999915
024,1,18,7,lure,new,1,0.5451384620999988
024,1,19,3,target,new,0,1.108081446299991
024,1,20,3,target,new,0,1.008156065899982
024,1,21,3,target,new,0,0.8586180841000441
024,1,22,5,target,new,0,0.8555172965000111
024,1,23,7,lure,new,1,0.7170821347999663
024,1,24,5,lure,new,1,0.9817493587000854
024,1,25,3,target,new,0,1.1249857400000565
024,2,1,7,target,new,0,1.492079690899999
024,2,2,7,target,new,0,0.6718709716000006
024,2,3,3,lure,new,1,0.8900264858000071
024,2,4,5,target,new,0,1.1204851308999935
024,2,5,5,target,new,0,0.6374622155999958
024,2,6,3,target,new,0,0.9127322637999953
024,2,7,5,lure,new,1,0.41510563229999775
024,2,8,7,target,new,0,0.7823990977999813
024,2,9,3,target,new,0,0.5995525685999894
024,2,10,3,target,new,0,0.5030280060000223
024,2,11,7,lure,new,1,0.7610936762000051
024,2,12,5,lure,new,1,0.5955515505000335
024,2,13,7,lure,new,1,0.6008528995999995
024,2,14,7,target,new,0,0.5179317985999887
024,2,15,5,lure,new,1,0.5182318749000387
024,2,16,3,target,new,0,0.8761229478000132
024,2,17,7,lure,new,1,0.3788964180999983
024,2,18,5,target,new,0,0.8291109845999927
024,2,19,3,target,new,0,0.8450150317000293
024,2,20,7,lure,new,1,0.7871002941000143
024,2,21,3,lure,new,1,0.6089549612999576
024,2,22,5,lure,new,1,0.4909249260999786
024,2,23,5,target,new,0,0.7812988178000069
024,2,24,3,target,new,0,0.6672698007999998
024,2,25,3,lure,new,1,0.5585421326999267
024,3,1,3,target,new,0,0.9157330274000017
024,3,2,7,target,new,0,0.45401553379999626
024,3,3,7,target,new,0,0.31568033140000296
024,3,4,5,lure,new,1,0.8213089993000011
024,3,5,7,target,new,0,0.46001706100000206
024,3,6,5,lure,new,1,0.47322042090002014
024,3,7,5,target,new,0,0.8234095337000156
024,3,8,3,lure,new,1,0.7041791931000034
024,3,9,3,target,new,0,0.8324118246000012
024,3,10,5,lure,new,1,0.7724965779000001
024,3,11,7,target,new,0,2.317489733699972
024,3,12,5,target,new,0,0.782599148700001
024,3,13,3,lure,new,1,0.9326373290999754
024,3,14,3,target,new,0,0.8043046720999882
024,3,15,5,target,new,0,0.5506401219000168
024,3,16,7,lure,new,1,0.6791728297000077
024,3,17,7,target,new,0,0.5421379582999748
024,3,18,7,target,new,0,0.5380369146999442
024,3,19,7,lure,new,1,0.4611173410000333
024,3,20,7,target,new,0,0.8527169916999924
024,3,21,3,lure,new,1,1.1510929196999768
024,3,22,3,target,new,0,0.7183828075999941
024,3,23,3,lure,new,1,0.8652201733999618
024,3,24,5,target,new,0,0.8562178825999354
024,3,25,5,lure,new,1,0.8534171697999682
